"Time (s)","Linear Acceleration x (m/s^2)","Linear Acceleration y (m/s^2)","Linear Acceleration z (m/s^2)"
1.471213800E-2,3.828740120E-2,4.687213898E-2,1.479806900E-1
1.971213800E-2,6.943941116E-2,1.157885790E-1,2.724905014E-1
2.471213800E-2,1.019916534E-1,1.765402555E-1,4.308700562E-1
2.971213800E-2,1.550943851E-1,2.323811054E-1,6.203012466E-1
3.471213800E-2,2.056722641E-1,2.550140619E-1,7.418251038E-1
3.971213800E-2,2.266838551E-1,2.772501707E-1,9.009084702E-1
4.471213800E-2,2.209558487E-1,2.980592251E-1,1.088744164E0
4.971213800E-2,2.513653040E-1,2.877944708E-1,1.234752655E0
5.471213800E-2,2.956053019E-1,2.730009556E-1,1.312982559E0
5.971213800E-2,3.574590683E-1,2.430014610E-1,1.386281967E0
6.471213800E-2,4.038527012E-1,2.186658382E-1,1.483763695E0
6.971213800E-2,4.424564838E-1,2.331296206E-1,1.572808266E0
7.471213800E-2,4.594057798E-1,2.436885834E-1,1.625011444E0
7.971213800E-2,4.656220675E-1,2.391517162E-1,1.615474701E0
8.471213800E-2,4.081174135E-1,2.330679893E-1,1.585571289E0
8.971213800E-2,3.300573826E-1,2.031033039E-1,1.595632553E0
9.471213800E-2,2.453523874E-1,1.633713245E-1,1.566193581E0
9.971213800E-2,1.442884207E-1,1.185324192E-1,1.568805695E0
1.047121380E-1,4.401826859E-2,8.149266243E-2,1.557571411E0
1.097121380E-1,-3.719377518E-2,4.535865784E-2,1.539327621E0
1.147121380E-1,-3.892827034E-2,1.966738701E-2,1.521736145E0
1.197121380E-1,-1.388216019E-2,-2.436399460E-3,1.518065453E0
1.247121380E-1,3.961533308E-2,-6.091594696E-3,1.505869865E0
1.297121380E-1,5.401676893E-2,5.345940590E-3,1.522045135E0
1.347121380E-1,7.757163048E-2,3.734254837E-2,1.551886559E0
1.397121380E-1,3.152340651E-2,6.893706322E-2,1.581272125E0
1.447121380E-1,-4.558366537E-2,1.000901461E-1,1.626840591E0
1.497121380E-1,-1.105458736E-1,1.335892677E-1,1.671532631E0
1.547121380E-1,-1.335455179E-1,1.668303013E-1,1.789139748E0
1.597121380E-1,-1.220818162E-1,1.762279272E-1,1.936833382E0
1.647121380E-1,-1.358859539E-1,1.979862452E-1,2.064673424E0
1.697121380E-1,-1.589302719E-1,1.810799837E-1,2.193845749E0
1.747121380E-1,-1.889872551E-1,1.474865675E-1,2.334397316E0
1.797121380E-1,-2.115978599E-1,7.594120502E-2,2.523171425E0
1.847121380E-1,-2.116386890E-1,-1.734280586E-2,2.739317894E0
1.897121380E-1,-1.894491613E-1,-1.403615475E-1,2.896506310E0
1.947121380E-1,-1.874694526E-1,-2.850146294E-1,2.901670456E0
1.997121380E-1,-1.726181060E-1,-4.697780609E-1,2.646937370E0
2.047121380E-1,-1.813858151E-1,-6.534326077E-1,2.188584328E0
2.097121380E-1,-2.266176343E-1,-8.183535337E-1,1.759021759E0
2.147121380E-1,-2.377322614E-1,-9.594046474E-1,1.293978691E0
2.197121380E-1,-2.515756786E-1,-1.062257290E0,7.861967087E-1
2.247121380E-1,-2.574053109E-1,-1.144598007E0,2.699632645E-1
2.297121380E-1,-2.804606259E-1,-1.192088127E0,-2.477493286E-1
2.347121380E-1,-2.455516458E-1,-1.207882285E0,-7.606878281E-1
2.397121380E-1,-1.323172450E-1,-1.179435968E0,-1.195568085E0
2.447121380E-1,-3.123452887E-3,-1.110566616E0,-1.521391869E0
2.497121380E-1,1.263611466E-1,-1.012901783E0,-1.791765213E0
2.547121380E-1,2.337743193E-1,-9.069209695E-1,-2.015030861E0
2.597121380E-1,3.387345672E-1,-7.695530653E-1,-2.203038216E0
2.647121380E-1,3.768617213E-1,-5.931599736E-1,-2.413698196E0
2.697121380E-1,3.910320401E-1,-3.965150118E-1,-2.562411308E0
2.747121380E-1,3.856748641E-1,-2.202784419E-1,-2.663100243E0
2.797121380E-1,4.099836648E-1,-3.284877539E-2,-2.657098770E0
2.847121380E-1,4.525842369E-1,1.378266215E-1,-2.586407661E0
2.897121380E-1,5.179947019E-1,2.422799468E-1,-2.451550484E0
2.947121380E-1,5.455765128E-1,3.133296371E-1,-2.256149292E0
2.997121380E-1,6.084872484E-1,3.381713033E-1,-2.019354820E0
3.047121380E-1,6.686078310E-1,3.084523082E-1,-1.739216805E0
3.097121380E-1,6.968080997E-1,2.433385253E-1,-1.477764130E0
3.147121380E-1,7.072080374E-1,1.122836471E-1,-1.241740227E0
3.197121380E-1,7.424550056E-1,-5.601119995E-2,-1.098320007E0
3.247121380E-1,7.814196348E-1,-2.286392152E-1,-1.016610146E0
3.297121380E-1,7.986290455E-1,-4.133839011E-1,-1.022159576E0
3.347121380E-1,8.011547327E-1,-6.111196280E-1,-1.144248962E0
3.397121380E-1,7.428418398E-1,-7.855407596E-1,-1.324297905E0
3.447121380E-1,6.730580330E-1,-9.306274056E-1,-1.583791733E0
3.497121380E-1,6.170376539E-1,-1.047688961E0,-1.858743668E0
3.547121380E-1,5.677885413E-1,-1.123420000E0,-2.112754822E0
3.597121380E-1,5.212111473E-1,-1.174679875E0,-2.352571487E0
3.647121380E-1,4.989689589E-1,-1.169664264E0,-2.548831940E0
3.697121380E-1,4.754189253E-1,-1.117985964E0,-2.658249855E0
3.747121380E-1,4.168504477E-1,-1.012780905E0,-2.725640297E0
3.797121380E-1,3.363606334E-1,-8.872704506E-1,-2.747475624E0
3.847121380E-1,2.215610743E-1,-7.418979406E-1,-2.752575874E0
3.897121380E-1,1.194075346E-1,-5.729461908E-1,-2.766635895E0
3.947121380E-1,2.518361807E-2,-3.808425665E-1,-2.805277824E0
3.997121380E-1,-4.807972908E-2,-1.799357533E-1,-2.851086617E0
4.047121380E-1,-1.136205196E-1,1.131297648E-2,-2.911862373E0
4.097121380E-1,-1.938090324E-1,1.650677621E-1,-2.977005959E0
4.147121380E-1,-2.326380014E-1,3.259890079E-1,-3.098839283E0
4.197121380E-1,-2.555124462E-1,4.422234297E-1,-3.248071671E0
4.247121380E-1,-2.384911478E-1,5.255424976E-1,-3.350791931E0
4.297121380E-1,-1.580095142E-1,5.991355181E-1,-3.456298351E0
4.347121380E-1,-3.756368160E-2,6.599172354E-1,-3.474419594E0
4.397121380E-1,5.590677261E-2,7.020300627E-1,-3.441146851E0
4.447121380E-1,1.304236054E-1,6.965944767E-1,-3.390869141E0
4.497121380E-1,1.960139573E-1,6.556437016E-1,-3.313045979E0
4.547121380E-1,2.452981472E-1,6.146570444E-1,-3.261625767E0
4.597121380E-1,2.950305045E-1,5.700643063E-1,-3.236721039E0
4.647121380E-1,2.879695594E-1,5.378835201E-1,-3.282416344E0
4.697121380E-1,2.385694981E-1,4.825488925E-1,-3.386138916E0
4.747121380E-1,1.583915055E-1,4.407090545E-1,-3.537628174E0
4.797121380E-1,6.237700582E-2,4.102784395E-1,-3.675637245E0
4.847121380E-1,-6.351245940E-2,3.803054690E-1,-3.800186157E0
4.897121380E-1,-1.893732846E-1,3.652627766E-1,-3.865818977E0
4.947121380E-1,-2.792381346E-1,3.787485659E-1,-3.883697033E0
4.997121380E-1,-3.549914360E-1,4.295454025E-1,-3.884885788E0
5.047121380E-1,-3.822476268E-1,4.668196440E-1,-3.819433212E0
5.097121380E-1,-3.923262954E-1,4.962334633E-1,-3.751478672E0
5.147121380E-1,-3.494158685E-1,5.371070504E-1,-3.668485641E0
5.197121380E-1,-2.866361439E-1,5.807967186E-1,-3.565350533E0
5.247121380E-1,-1.858672500E-1,6.212557554E-1,-3.421494007E0
5.297121380E-1,-8.644539863E-2,6.631683707E-1,-3.254680634E0
5.347121380E-1,-1.173184067E-2,6.827441454E-1,-3.025218487E0
5.397121380E-1,6.915456057E-2,6.811095476E-1,-2.798389435E0
5.447121380E-1,1.110651046E-1,6.903295517E-1,-2.556668282E0
5.497121380E-1,1.545105726E-1,6.895467639E-1,-2.299802780E0
5.547121380E-1,1.583213657E-1,6.888353825E-1,-2.029860973E0
5.597121380E-1,1.374682486E-1,6.951999664E-1,-1.770596504E0
5.647121380E-1,1.049332172E-1,7.044515610E-1,-1.542340279E0
5.697121380E-1,3.857142478E-2,7.205525041E-1,-1.342805862E0
5.747121380E-1,-5.332607776E-2,7.114579678E-1,-1.171945572E0
5.797121380E-1,-1.480396688E-1,7.034935951E-1,-1.007330894E0
5.847121380E-1,-2.292436808E-1,7.058970332E-1,-8.903141022E-1
5.897121380E-1,-2.952578068E-1,7.066772580E-1,-7.332391739E-1
5.947121380E-1,-3.241046667E-1,6.979247332E-1,-5.862417221E-1
5.997121380E-1,-3.846250474E-1,7.221946716E-1,-4.581956863E-1
6.047121380E-1,-4.333332777E-1,7.387449741E-1,-3.195457458E-1
6.097121380E-1,-4.721822143E-1,7.585311532E-1,-1.914024353E-1
6.147121380E-1,-4.748817086E-1,7.873778939E-1,-5.077934265E-2
6.197121380E-1,-4.687864184E-1,8.061885238E-1,9.236145020E-2
6.247121380E-1,-4.437850118E-1,8.189816475E-1,2.445173264E-1
6.297121380E-1,-4.028796256E-1,8.179942966E-1,3.944654465E-1
6.347121380E-1,-3.421434760E-1,8.263021708E-1,5.324201584E-1
6.397121380E-1,-2.734865844E-1,8.281081319E-1,6.828222275E-1
6.447121380E-1,-2.230748832E-1,8.134329319E-1,8.271646500E-1
6.497121380E-1,-1.606102437E-1,8.074651361E-1,9.666967392E-1
6.547121380E-1,-9.728047252E-2,7.897112966E-1,1.096610069E0
6.597121380E-1,-4.391892254E-2,7.675886154E-1,1.221730232E0
6.647121380E-1,8.289694786E-3,7.321208715E-1,1.284422874E0
6.697121380E-1,8.291572332E-2,6.742824912E-1,1.347168922E0
6.747121380E-1,1.734259874E-1,5.822319984E-1,1.431607246E0
6.797121380E-1,2.355096340E-1,4.675372839E-1,1.550892830E0
6.847121380E-1,2.666132450E-1,3.677154779E-1,1.691775322E0
6.897121380E-1,2.651653290E-1,2.641162872E-1,1.875976562E0
6.947121380E-1,2.311797142E-1,1.713016331E-1,2.065393448E0
6.997121380E-1,2.029112279E-1,1.345346868E-1,2.214644432E0
7.047121380E-1,1.481035352E-1,1.123121977E-1,2.359325409E0
7.097121380E-1,5.330854654E-2,1.239967048E-1,2.467165947E0
7.147121380E-1,-4.950249195E-2,1.439473331E-1,2.511271477E0
7.197121380E-1,-1.583549976E-1,1.530438960E-1,2.529876709E0
7.247121380E-1,-2.769395709E-1,1.582453549E-1,2.534364700E0
7.297121380E-1,-3.587684035E-1,1.662431657E-1,2.506909370E0
7.347121380E-1,-4.459668994E-1,1.624410748E-1,2.491971970E0
7.397121380E-1,-4.759514332E-1,1.542767286E-1,2.463539124E0
7.447121380E-1,-4.888610244E-1,1.413438916E-1,2.438944817E0
7.497121380E-1,-4.042499363E-1,1.343630850E-1,2.470980644E0
7.547121380E-1,-3.240709007E-1,9.933599830E-2,2.565014839E0
7.597121380E-1,-3.383167386E-1,3.092382848E-2,2.562335968E0
7.647121380E-1,-3.788137734E-1,-7.631574571E-2,2.565836906E0
7.697121380E-1,-3.973417580E-1,-1.814233065E-1,2.620423317E0
7.747121380E-1,-4.434469938E-1,-3.284503520E-1,2.656783104E0
7.797121380E-1,-5.728601217E-1,-4.651817381E-1,2.692108154E0
7.847121380E-1,-6.629032493E-1,-5.781938434E-1,2.720692635E0
7.897121380E-1,-7.281282544E-1,-6.667984724E-1,2.630889893E0
7.947121380E-1,-7.031263113E-1,-6.983304024E-1,2.445088387E0
7.997121380E-1,-6.587480903E-1,-7.173873782E-1,2.168925285E0
8.047121380E-1,-6.470301151E-1,-7.234545946E-1,1.851558685E0
8.097121380E-1,-6.790521145E-1,-7.019433379E-1,1.514678955E0
8.147121380E-1,-8.589115739E-1,-6.222476959E-1,1.390472412E0
8.197121380E-1,-7.310155630E-1,-6.061900854E-1,8.886556625E-1
8.247121380E-1,-4.872791767E-1,-6.024281979E-1,2.616186142E-1
8.297121380E-1,-3.218816221E-1,-6.242393851E-1,-2.073240280E-1
8.347121380E-1,-2.434550822E-1,-6.846489906E-1,-5.606231689E-1
8.397121380E-1,-2.705526948E-1,-7.235850692E-1,-6.921987534E-1
8.447121380E-1,-3.128456771E-1,-7.271600366E-1,-6.454896927E-1
8.497121380E-1,-3.529478908E-1,-7.038824558E-1,-5.100698471E-1
8.547121380E-1,-3.259778619E-1,-6.711239219E-1,-4.219665527E-1
8.597121380E-1,-2.610634565E-1,-6.047829390E-1,-2.847242355E-1
8.647121380E-1,-1.585162282E-1,-4.907238483E-1,-8.651828766E-2
8.697121380E-1,-1.070701629E-1,-3.705726862E-1,2.378349304E-1
8.747121380E-1,-1.502179950E-1,-2.848637402E-1,6.356296539E-1
8.797121380E-1,-2.136385292E-1,-2.565394342E-1,9.652452469E-1
8.847121380E-1,-2.269347608E-1,-2.771262527E-1,1.236650467E0
8.897121380E-1,-2.467807829E-1,-3.522679508E-1,1.394216537E0
8.947121380E-1,-2.406708002E-1,-5.191516876E-1,1.429611206E0
8.997121380E-1,-2.348831296E-1,-7.612919807E-1,1.360934258E0
9.047121380E-1,-1.546040028E-1,-1.044342995E0,1.181973457E0
9.097121380E-1,8.925352246E-3,-1.279055119E0,8.797655106E-1
9.147121380E-1,1.000338048E-1,-1.412339926E0,6.338748932E-1
9.197121380E-1,-1.756474376E-3,-1.486325502E0,2.362785339E-1
9.247121380E-1,-3.522136807E-2,-1.499012709E0,-2.409420013E-1
9.297121380E-1,1.338145137E-2,-1.425117373E0,-9.358778000E-1
9.347121380E-1,7.955582440E-2,-1.304335117E0,-1.717471123E0
9.397121380E-1,4.609633982E-2,-1.182430148E0,-2.340843201E0
9.447121380E-1,2.150505334E-1,-1.500970840E0,-2.991502762E0
9.497121380E-1,7.947504520E-3,-1.248341084E0,-3.089258194E0
9.547121380E-1,-1.452915370E-1,-7.732326984E-1,-3.054794312E0
9.597121380E-1,-2.345493287E-1,-2.883766890E-1,-2.927449226E0
9.647121380E-1,-3.576642573E-1,1.276757419E-1,-2.597871780E0
9.697121380E-1,-5.203978419E-1,4.221417308E-1,-2.226759911E0
9.747121380E-1,-6.776551008E-1,5.917057991E-1,-1.946687698E0
9.797121380E-1,-8.119542003E-1,6.410629749E-1,-1.822297096E0
9.847121380E-1,-9.046191573E-1,5.992688537E-1,-1.733785629E0
9.897121380E-1,-9.390463829E-1,5.258029103E-1,-1.678870201E0
9.947121380E-1,-8.801333308E-1,4.279349446E-1,-1.656716347E0
9.997121380E-1,-7.408401966E-1,3.517604470E-1,-1.646288872E0
1.004712138E0,-6.255861521E-1,2.323596478E-1,-1.622822762E0
1.009712138E0,-4.784566462E-1,1.374644041E-1,-1.672737122E0
1.014712138E0,-3.002724349E-1,7.775145769E-2,-1.853813171E0
1.019712138E0,-1.684286892E-1,-3.048187494E-2,-1.969518661E0
1.024712138E0,-4.125088453E-2,-1.087136865E-1,-2.153838158E0
1.029712138E0,8.786727488E-2,-1.926912069E-1,-2.517361641E0
1.034712138E0,1.830757707E-1,-2.704580128E-1,-2.833805084E0
1.039712138E0,2.824905813E-1,-3.146327734E-1,-3.176993370E0
1.044712138E0,3.319371343E-1,-3.479608893E-1,-3.487830162E0
1.049712138E0,3.405967355E-1,-3.542070985E-1,-3.808431149E0
1.054712138E0,2.937459350E-1,-3.638024628E-1,-4.038892746E0
1.059712138E0,2.238167822E-1,-3.609236479E-1,-4.265330315E0
1.064712138E0,7.363829017E-2,-3.668640256E-1,-4.312241554E0
1.069712138E0,-9.480223060E-2,-3.570991755E-1,-4.240616798E0
1.074712138E0,-2.442731857E-1,-3.204970956E-1,-4.121744156E0
1.079712138E0,-3.673172593E-1,-2.650082111E-1,-4.028275013E0
1.084712138E0,-4.713805318E-1,-2.057569027E-1,-3.835989475E0
1.089712138E0,-6.000036001E-1,-1.112680435E-1,-3.387635231E0
1.094712138E0,-7.441827059E-1,-3.558689356E-2,-2.655804634E0
1.099712138E0,-8.568322659E-1,7.953220606E-2,-1.657285690E0
1.104712138E0,-7.355840206E-1,1.662297249E-1,-1.011241913E0
1.109712138E0,-3.326723576E-1,2.422062755E-1,-9.166908264E-1
1.114712138E0,1.230206490E-1,2.889646888E-1,-1.028556824E0
1.119712138E0,4.375833273E-1,3.428410888E-1,-1.051294327E0
1.124712138E0,5.677894950E-1,3.654464483E-1,-9.715251923E-1
1.129712138E0,5.766364932E-1,3.052098155E-1,-1.010768890E0
1.134712138E0,5.790951252E-1,2.092612386E-1,-1.119679451E0
1.139712138E0,6.028454304E-1,1.233291030E-1,-1.341522217E0
1.144712138E0,5.878710747E-1,5.942767859E-2,-1.565753937E0
1.149712138E0,4.757445157E-1,6.040203571E-2,-1.809669495E0
1.154712138E0,3.553070426E-1,1.183512211E-1,-2.024353981E0
1.159712138E0,2.302187085E-1,2.227740288E-1,-2.221153736E0
1.164712138E0,9.338390827E-2,3.817653656E-1,-2.404806137E0
1.169712138E0,-5.555731058E-2,5.648461580E-1,-2.512361526E0
1.174712138E0,-1.882391572E-1,7.167340517E-1,-2.561499596E0
1.179712138E0,-2.995893955E-1,8.721977472E-1,-2.572473526E0
1.184712138E0,-4.458247423E-1,9.706380367E-1,-2.502992630E0
1.189712138E0,-6.498124599E-1,9.862726927E-1,-2.336245537E0
1.194712138E0,-8.011072874E-1,7.131097317E-1,-2.396294117E0
1.199712138E0,-7.128473520E-1,6.789251566E-1,-2.028087616E0
1.204712138E0,-5.993996859E-1,6.860121489E-1,-1.507062912E0
1.209712138E0,-4.989103079E-1,8.321846724E-1,-6.784248352E-1
1.214712138E0,-4.325513840E-1,9.536089897E-1,1.026096344E-1
1.219712138E0,-3.183428049E-1,1.093208671E0,9.607238770E-1
1.224712138E0,-1.757261753E-1,1.119687438E0,1.619620323E0
1.229712138E0,-5.769014359E-3,1.004277945E0,1.973761559E0
1.234712138E0,1.073386073E-1,7.747156024E-1,2.154248238E0
1.239712138E0,1.607904434E-1,5.065357089E-1,2.391921997E0
1.244712138E0,2.190618515E-1,1.827920079E-1,2.414923668E0
1.249712138E0,2.151291370E-1,-6.801617146E-2,2.506503105E0
1.254712138E0,2.149305940E-1,-2.387752533E-1,2.586114883E0
1.259712138E0,2.620396018E-1,-3.583062291E-1,2.453616142E0
1.264712138E0,1.959912181E-1,-3.895994425E-1,2.334341049E0
1.269712138E0,1.803646684E-1,-3.930500150E-1,2.035086632E0
1.274712138E0,1.652302146E-1,-3.431523442E-1,1.599706650E0
1.279712138E0,1.270293593E-1,-1.966478229E-1,1.406839371E0
1.284712138E0,9.352618456E-2,1.938855648E-2,1.252829552E0
1.289712138E0,1.412516832E-2,2.494212389E-1,1.130333900E0
1.294712138E0,-5.147212744E-2,4.713337421E-1,9.774637222E-1
1.299712138E0,-9.553903341E-2,6.868672371E-1,7.932157516E-1
1.304712138E0,-1.985764503E-1,8.645106554E-1,7.187433243E-1
1.309712138E0,-3.048391938E-1,9.969406128E-1,7.760314941E-1
1.314712138E0,-5.096635818E-1,1.085897088E0,1.034820557E0
1.319712138E0,-7.310599089E-1,1.124523640E0,1.555169106E0
1.324712138E0,-8.611966372E-1,1.054722309E0,2.453520775E0
1.329712138E0,-1.025097132E0,9.020411372E-1,3.010585785E0
1.334712138E0,-1.048082948E0,6.471470594E-1,3.235841751E0
1.339712138E0,-8.418186307E-1,2.559748888E-1,3.450317383E0
1.344712138E0,-6.474545002E-1,-2.791767716E-1,3.679777145E0
1.349712138E0,-4.684937000E-1,-7.998230457E-1,3.914329529E0
1.354712138E0,-1.464178562E-1,-1.127460241E0,4.401895523E0
1.359712138E0,-9.841416031E-2,-1.366822600E0,4.844723701E0
1.364712138E0,-1.272467226E-1,-1.491836429E0,4.925151825E0
1.369712138E0,-1.235847399E-1,-1.538081050E0,4.648052216E0
1.374712138E0,-9.520383924E-2,-1.514308691E0,4.036211014E0
1.379712138E0,6.029944867E-3,-1.408890009E0,3.255170822E0
1.384712138E0,1.698219627E-1,-1.303876638E0,2.292378426E0
1.389712138E0,-2.628108487E-3,-1.088735580E0,1.583989143E0
1.394712138E0,-2.039087750E-2,-8.045293689E-1,7.110509872E-1
1.399712138E0,5.328451470E-2,-4.366204739E-1,-4.928207397E-2
1.404712138E0,1.466110647E-1,-5.020773411E-2,-7.207489014E-1
1.409712138E0,2.487903982E-1,3.417323828E-1,-1.251086235E0
1.414712138E0,3.700444698E-1,6.664718390E-1,-1.701262474E0
1.419712138E0,4.780411422E-1,8.957691193E-1,-1.995184898E0
1.424712138E0,5.529313087E-1,1.039742589E0,-2.117547035E0
1.429712138E0,7.403788567E-1,1.099745512E0,-2.080386162E0
1.434712138E0,8.923398256E-1,1.067129850E0,-1.904246330E0
1.439712138E0,9.850481749E-1,9.392465353E-1,-1.559045792E0
1.444712138E0,1.068242311E0,7.537561655E-1,-1.147386551E0
1.449712138E0,1.105690122E0,5.404511690E-1,-7.722301483E-1
1.454712138E0,1.090535402E0,3.005056381E-1,-4.444656372E-1
1.459712138E0,1.025323749E0,7.872188091E-2,-1.002082825E-1
1.464712138E0,9.639495611E-1,-1.371954679E-1,1.166038513E-1
1.469712138E0,9.480415583E-1,-5.360162258E-1,-1.339254379E-1
1.474712138E0,7.924236655E-1,-6.965498328E-1,2.694034576E-2
1.479712138E0,7.110099196E-1,-7.619129419E-1,-2.798366547E-2
1.484712138E0,6.908118129E-1,-7.392624021E-1,-1.674537659E-1
1.489712138E0,6.488481760E-1,-7.386699915E-1,-3.777761459E-1
1.494712138E0,5.614755750E-1,-6.926220655E-1,-4.924192429E-1
1.499712138E0,5.052158833E-1,-6.882382631E-1,-6.802110672E-1
1.504712138E0,5.081406832E-1,-7.008545399E-1,-9.003715515E-1
1.509712138E0,4.983696938E-1,-7.218520641E-1,-1.135380745E0
1.514712138E0,4.453090429E-1,-7.073841095E-1,-1.312017441E0
1.519712138E0,3.925621510E-1,-6.457137465E-1,-1.467627525E0
1.524712138E0,2.741714716E-1,-4.825836420E-1,-1.429675102E0
1.529712138E0,1.932318211E-1,-3.125448227E-1,-1.280532837E0
1.534712138E0,1.789401770E-1,-2.066586018E-1,-1.206798553E0
1.539712138E0,1.763925552E-1,-1.369578838E-1,-1.222393036E0
1.544712138E0,1.507811546E-1,-1.393204927E-1,-1.324450493E0
1.549712138E0,4.759740829E-2,-2.041115761E-1,-1.405578613E0
1.554712138E0,-5.630838871E-2,-2.927051783E-1,-1.487680435E0
1.559712138E0,-1.579636335E-1,-3.556951284E-1,-1.598007202E0
1.564712138E0,-2.382377386E-1,-3.883882761E-1,-1.662561417E0
1.569712138E0,-3.035243750E-1,-3.863916993E-1,-1.665396690E0
1.574712138E0,-3.510907888E-1,-3.740642071E-1,-1.652585030E0
1.579712138E0,-3.411083221E-1,-3.902229071E-1,-1.667660713E0
1.584712138E0,-2.986419201E-1,-4.273140430E-1,-1.677369118E0
1.589712138E0,-2.181972265E-1,-4.237622023E-1,-1.737010956E0
1.594712138E0,-1.199307442E-1,-3.556986451E-1,-1.862608910E0
1.599712138E0,-1.737165451E-2,-2.135728598E-1,-2.030671120E0
1.604712138E0,6.487381458E-2,-2.588212490E-2,-2.198449135E0
1.609712138E0,9.031546116E-2,1.509442329E-1,-2.400451660E0
1.614712138E0,6.139731407E-2,3.340363503E-1,-2.556993484E0
1.619712138E0,4.721248150E-2,4.630409479E-1,-2.748272896E0
1.624712138E0,3.255486488E-2,5.528442860E-1,-2.953357220E0
1.629712138E0,2.572774887E-2,6.338373423E-1,-3.139174938E0
1.634712138E0,1.589536667E-2,6.731784344E-1,-3.272202969E0
1.639712138E0,6.534218788E-3,6.801571846E-1,-3.348077774E0
1.644712138E0,-1.757502556E-2,6.413060427E-1,-3.331114769E0
1.649712138E0,-5.209910870E-2,5.490809679E-1,-3.226108551E0
1.654712138E0,-5.862951279E-2,4.350053072E-1,-3.065199852E0
1.659712138E0,-1.080335975E-1,3.484629393E-1,-2.905462265E0
1.664712138E0,-1.673155427E-1,2.872110605E-1,-2.684567451E0
1.669712138E0,-2.419379950E-1,2.551296949E-1,-2.397335052E0
1.674712138E0,-2.990186214E-1,2.282159328E-1,-2.115277290E0
1.679712138E0,-2.706594467E-1,1.981897354E-1,-1.869873524E0
1.684712138E0,-2.432185411E-1,1.568562984E-1,-1.627643585E0
1.689712138E0,-1.894655824E-1,1.146051884E-1,-1.401002884E0
1.694712138E0,-1.499941945E-1,8.270311356E-2,-1.186640739E0
1.699712138E0,-1.564117074E-1,7.707571983E-2,-1.037036896E0
1.704712138E0,-2.062102556E-1,9.212994576E-2,-9.511289597E-1
1.709712138E0,-2.606562972E-1,1.347013712E-1,-9.100074768E-1
1.714712138E0,-3.475485444E-1,1.917253733E-1,-9.010543823E-1
1.719712138E0,-4.345039725E-1,2.458246946E-1,-9.120082855E-1
1.724712138E0,-5.174140334E-1,3.020725250E-1,-1.011063576E0
1.729712138E0,-5.533684492E-1,3.654577732E-1,-1.164011002E0
1.734712138E0,-5.390821099E-1,4.431777000E-1,-1.306302071E0
1.739712138E0,-5.151226521E-1,5.448538065E-1,-1.471181870E0
1.744712138E0,-4.375333786E-1,6.576102972E-1,-1.577048302E0
1.749712138E0,-3.577120602E-1,7.816114426E-1,-1.590091705E0
1.754712138E0,-2.915400267E-1,8.775860071E-1,-1.506741524E0
1.759712138E0,-2.388601303E-1,9.230654240E-1,-1.349261284E0
1.764712138E0,-1.661042571E-1,9.698483944E-1,-1.109940529E0
1.769712138E0,-1.542626023E-1,9.411884546E-1,-8.009948730E-1
1.774712138E0,-2.438557744E-1,8.979057074E-1,-4.444265366E-1
1.779712138E0,-3.341527581E-1,8.200358152E-1,-8.882617950E-2
1.784712138E0,-4.057854712E-1,7.200318575E-1,1.855020523E-1
1.789712138E0,-4.717229903E-1,6.426846981E-1,4.024715424E-1
1.794712138E0,-4.633439779E-1,6.441444159E-1,5.916881561E-1
1.799712138E0,-3.864212632E-1,6.593416929E-1,7.699890137E-1
1.804712138E0,-2.717965841E-1,6.730240583E-1,9.834413528E-1
1.809712138E0,-1.341707706E-1,7.332085371E-1,1.234398842E0
1.814712138E0,1.796115637E-1,6.920137405E-1,1.530420303E0
1.819712138E0,5.586320758E-1,5.812216997E-1,1.857372284E0
1.824712138E0,4.893767834E-1,4.810409546E-1,2.171293259E0
1.829712138E0,5.298244953E-1,3.450022936E-1,2.465149879E0
1.834712138E0,4.607176781E-1,2.856200933E-1,2.829704285E0
1.839712138E0,3.447589278E-1,2.523051500E-1,3.053857803E0
1.844712138E0,1.280214190E-1,2.481039762E-1,3.046382904E0
1.849712138E0,-1.559907198E-2,1.934385300E-1,2.900115967E0
1.854712138E0,-1.962482929E-1,1.187930107E-1,2.729049683E0
1.859712138E0,-2.480861396E-1,-1.076698303E-3,2.535616875E0
1.864712138E0,-3.049392998E-1,-8.920252323E-2,2.278633118E0
1.869712138E0,-3.826339245E-1,-1.459105015E-1,1.886304855E0
1.874712138E0,-3.837539852E-1,-1.957304478E-1,1.800083160E0
1.879712138E0,-4.017178416E-1,-1.756764650E-1,1.714818001E0
1.884712138E0,-4.798705578E-1,-1.063027382E-1,1.864192963E0
1.889712138E0,-5.629572868E-1,-8.304083347E-2,2.312729836E0
1.894712138E0,-6.109048128E-1,-1.364107132E-1,2.840857506E0
1.899712138E0,-5.897930861E-1,-3.013211489E-1,3.509945869E0
1.904712138E0,-5.292698741E-1,-5.686619282E-1,4.231223106E0
1.909712138E0,-5.102553964E-1,-8.991035223E-1,4.923127174E0
1.914712138E0,-5.384978652E-1,-1.179154277E0,5.441349030E0
1.919712138E0,-4.769489169E-1,-1.240009546E0,5.165428162E0
1.924712138E0,-5.831140280E-1,-1.402617335E0,5.398780823E0
1.929712138E0,-7.012199759E-1,-1.603098869E0,5.492547989E0
1.934712138E0,-8.477077484E-1,-1.663517952E0,5.126719475E0
1.939712138E0,-1.042464852E0,-1.644887686E0,4.532998085E0
1.944712138E0,-1.209523678E0,-1.623801827E0,3.806986809E0
1.949712138E0,-1.298747778E0,-1.553030491E0,3.042459488E0
1.954712138E0,-1.239478588E0,-1.435289621E0,2.242542267E0
1.959712138E0,-9.893050790E-1,-1.320444226E0,1.457130432E0
1.964712138E0,-7.154403925E-1,-1.202926636E0,8.334970474E-1
1.969712138E0,-6.234843731E-1,-1.038613677E0,3.948345184E-1
1.974712138E0,-4.997167289E-1,-8.700401783E-1,8.462905884E-3
1.979712138E0,-3.389638364E-1,-6.801355481E-1,-1.384906769E-1
1.984712138E0,-3.041451871E-1,-5.620273352E-1,-1.153945923E-3
1.989712138E0,-3.107195199E-1,-5.399051905E-1,2.298355103E-1
1.994712138E0,-3.051785827E-1,-6.250905991E-1,4.752655029E-1
1.999712138E0,-2.749538124E-1,-7.437978983E-1,5.834484100E-1
2.004712138E0,-2.619279623E-1,-9.281876087E-1,5.680255890E-1
2.009712138E0,-2.392147183E-1,-1.098881483E0,4.827041626E-1
2.014712138E0,-2.290752530E-1,-1.239778638E0,3.338518143E-1
2.019712138E0,-2.586066127E-1,-1.378402233E0,1.184654236E-1
2.024712138E0,-2.680192590E-1,-1.470080853E0,-1.232194901E-1
2.029712138E0,-2.704959512E-1,-1.476552486E0,-3.036823273E-1
2.034712138E0,-2.897331417E-1,-1.466210127E0,-4.116725922E-1
2.039712138E0,-1.875451505E-1,-1.405660629E0,-5.113229752E-1
2.044712138E0,-6.662395597E-2,-1.230679989E0,-5.510425568E-1
2.049712138E0,7.209372520E-2,-9.837127924E-1,-5.461835861E-1
2.054712138E0,2.292176336E-1,-7.140558362E-1,-5.442380905E-1
2.059712138E0,3.591877818E-1,-4.535424709E-1,-5.879716873E-1
2.064712138E0,4.574418366E-1,-2.265404463E-1,-7.124547958E-1
2.069712138E0,5.149152875E-1,-4.969120026E-3,-9.635944366E-1
2.074712138E0,5.401497483E-1,1.601886749E-1,-1.321151733E0
2.079712138E0,5.174009204E-1,2.622185946E-1,-1.759163857E0
2.084712138E0,4.838854074E-1,3.236703873E-1,-2.202315331E0
2.089712138E0,4.176686704E-1,3.612301350E-1,-2.589057446E0
2.094712138E0,3.176823854E-1,3.657292128E-1,-2.941124916E0
2.099712138E0,1.004036665E-1,3.092907667E-1,-3.254281998E0
2.104712138E0,-1.428983808E-1,2.020312548E-1,-3.480687141E0
2.109712138E0,-3.677451015E-1,6.953334808E-2,-3.648740768E0
2.114712138E0,-5.188993216E-1,-5.096578598E-2,-3.735007286E0
2.119712138E0,-5.818108320E-1,-1.478527784E-1,-3.761277199E0
2.124712138E0,-6.013045907E-1,-2.252479792E-1,-3.751508713E0
2.129712138E0,-6.010245681E-1,-3.051362634E-1,-3.734357834E0
2.134712138E0,-5.419688225E-1,-3.155177236E-1,-3.705014229E0
2.139712138E0,-4.620064497E-1,-2.653468847E-1,-3.656433105E0
2.144712138E0,-3.497830629E-1,-1.816310287E-1,-3.631215096E0
2.149712138E0,-2.322594523E-1,-9.571009874E-2,-3.600444794E0
2.154712138E0,-1.464453340E-1,-2.352350950E-2,-3.559377670E0
2.159712138E0,-7.572728395E-2,7.776427269E-2,-3.511300087E0
2.164712138E0,-3.367817402E-2,1.854187846E-1,-3.504873276E0
2.169712138E0,3.089904785E-3,2.378631830E-1,-3.483798027E0
2.174712138E0,1.989221573E-2,2.864538431E-1,-3.478454113E0
2.179712138E0,6.553590298E-3,3.070930243E-1,-3.461793423E0
2.184712138E0,-2.995324135E-2,3.394992352E-1,-3.416823387E0
2.189712138E0,-8.269202709E-2,3.354513645E-1,-3.346691132E0
2.194712138E0,-1.145014763E-1,3.105690479E-1,-3.235434532E0
2.199712138E0,-1.398990154E-1,2.722682953E-1,-3.110650539E0
2.204712138E0,-1.646897793E-1,2.681220770E-1,-2.952988625E0
2.209712138E0,-1.682790518E-1,2.259856462E-1,-2.786120415E0
2.214712138E0,-2.185466290E-1,1.628674269E-1,-2.616936684E0
2.219712138E0,-2.244326472E-1,1.140078306E-1,-2.444012642E0
2.224712138E0,-1.554973722E-1,1.124460697E-1,-2.279036522E0
2.229712138E0,-8.556467295E-2,1.475237608E-1,-2.108820915E0
2.234712138E0,-6.506764889E-2,2.058662176E-1,-1.965737343E0
2.239712138E0,-8.346199989E-2,2.651369572E-1,-1.835097790E0
2.244712138E0,-1.219763458E-1,3.007813692E-1,-1.724089622E0
2.249712138E0,-1.719458103E-1,3.245444298E-1,-1.643397331E0
2.254712138E0,-2.193610370E-1,3.433575630E-1,-1.566610336E0
2.259712138E0,-2.842682898E-1,3.808593750E-1,-1.482657433E0
2.264712138E0,-3.692183197E-1,4.296103716E-1,-1.407208443E0
2.269712138E0,-4.808634222E-1,4.416686296E-1,-1.313616753E0
2.274712138E0,-6.309084892E-1,4.279080629E-1,-1.224203110E0
2.279712138E0,-7.877691388E-1,4.046694040E-1,-1.173789024E0
2.284712138E0,-9.618340731E-1,3.840652704E-1,-1.184121132E0
2.289712138E0,-1.095005274E0,3.592385054E-1,-1.241790771E0
2.294712138E0,-1.217298746E0,2.967066765E-1,-1.355670929E0
2.299712138E0,-1.277116776E0,2.595551014E-1,-1.423988342E0
2.304712138E0,-1.350887775E0,2.157312632E-1,-1.457443237E0
2.309712138E0,-1.364632607E0,1.985517740E-1,-1.377134323E0
2.314712138E0,-1.362818003E0,1.937966347E-1,-1.315444946E0
2.319712138E0,-1.353191137E0,1.803109646E-1,-1.230701447E0
2.324712138E0,-1.334091425E0,1.699639559E-1,-1.105619431E0
2.329712138E0,-1.289069772E0,1.869472265E-1,-9.437322617E-1
2.334712138E0,-1.238022208E0,2.493624687E-1,-7.516832352E-1
2.339712138E0,-1.169301510E0,3.246960640E-1,-4.489088058E-1
2.344712138E0,-1.082202077E0,3.389085531E-1,-1.057367325E-1
2.349712138E0,-9.538413882E-1,3.152276278E-1,2.346220016E-1
2.354712138E0,-8.563412428E-1,2.329117060E-1,5.588665009E-1
2.359712138E0,-7.632730603E-1,1.230933666E-1,8.833580017E-1
2.364712138E0,-7.113137245E-1,9.899139404E-3,1.204800606E0
2.369712138E0,-6.748866439E-1,-8.406436443E-2,1.555693626E0
2.374712138E0,-6.634595394E-1,-1.836956739E-1,1.882368088E0
2.379712138E0,-6.504957676E-1,-3.112457991E-1,2.198136330E0
2.384712138E0,-6.739807129E-1,-4.470212460E-1,2.489991188E0
2.389712138E0,-7.346860766E-1,-5.412076712E-1,2.750200272E0
2.394712138E0,-8.395777941E-1,-5.854581594E-1,2.945539474E0
2.399712138E0,-9.336652160E-1,-5.938571095E-1,3.065446854E0
2.404712138E0,-1.022669196E0,-5.190529823E-1,3.086865425E0
2.409712138E0,-1.060516477E0,-4.048467875E-1,3.003077507E0
2.414712138E0,-1.009761095E0,-2.596887350E-1,2.799345970E0
2.419712138E0,-9.061203599E-1,-8.832615614E-2,2.497572899E0
2.424712138E0,-8.085080385E-1,1.028608680E-1,2.169752121E0
2.429712138E0,-7.488588095E-1,2.834805250E-1,1.915408134E0
2.434712138E0,-6.668250561E-1,4.328134656E-1,1.772086143E0
2.439712138E0,-5.993429422E-1,5.261946917E-1,1.748710632E0
2.444712138E0,-5.340435505E-1,5.640313625E-1,1.860257149E0
2.449712138E0,-5.209642649E-1,5.016947985E-1,2.091771126E0
2.454712138E0,-5.554206371E-1,3.808727264E-1,2.435568810E0
2.459712138E0,-5.448533297E-1,1.698591113E-1,2.862064362E0
2.464712138E0,-5.225493312E-1,-9.921014309E-2,3.315890312E0
2.469712138E0,-5.326378345E-1,-4.199045897E-1,3.835015297E0
2.474712138E0,-5.330783129E-1,-7.289468050E-1,4.412334442E0
2.479712138E0,-4.842159748E-1,-9.715161324E-1,4.973460197E0
2.484712138E0,-4.071209431E-1,-1.101876259E0,5.461730003E0
2.489712138E0,-3.143227100E-1,-1.139601231E0,5.758762360E0
2.494712138E0,-2.443668246E-1,-1.073574901E0,5.868654251E0
2.499712138E0,-1.270791590E-1,-9.347988367E-1,5.757667542E0
2.504712138E0,2.882534266E-2,-7.635862827E-1,5.393053055E0
2.509712138E0,1.902657151E-1,-5.688662529E-1,4.780277252E0
2.514712138E0,3.955193162E-1,-3.594741523E-1,3.967862129E0
2.519712138E0,6.046771407E-1,-1.543120742E-1,3.115767479E0
2.524712138E0,7.962650657E-1,4.911309481E-2,2.299528122E0
2.529712138E0,9.640412927E-1,2.106012106E-1,1.562483788E0
2.534712138E0,1.093587041E0,3.472730517E-1,9.509353638E-1
2.539712138E0,1.163998723E0,4.156173468E-1,4.627552032E-1
2.544712138E0,1.193402410E0,4.080414772E-1,5.300235748E-2
2.549712138E0,1.135982394E0,3.395517468E-1,-2.560472488E-1
2.554712138E0,1.053555965E0,1.933488846E-1,-4.033365250E-1
2.559712138E0,9.703847170E-1,-2.954286337E-2,-3.994941711E-1
2.564712138E0,8.702905774E-1,-3.341854811E-1,-2.273626328E-1
2.569712138E0,8.001148701E-1,-6.622395515E-1,5.229377747E-2
2.574712138E0,7.447237968E-1,-1.000282168E0,3.525323868E-1
2.579712138E0,7.000061870E-1,-1.296324015E0,6.820659637E-1
2.584712138E0,6.692385674E-1,-1.543725252E0,9.508342743E-1
2.589712138E0,6.520743370E-1,-1.754955888E0,1.218383789E0
2.594712138E0,6.735418439E-1,-1.883744240E0,1.452590942E0
2.599712138E0,7.181645632E-1,-1.920303822E0,1.599552155E0
2.604712138E0,7.659376860E-1,-1.894589186E0,1.663624763E0
2.609712138E0,8.411599398E-1,-1.773953557E0,1.607899666E0
2.614712138E0,9.289442897E-1,-1.616097927E0,1.445660591E0
2.619712138E0,9.867259860E-1,-1.404664516E0,1.152743340E0
2.624712138E0,1.055609584E0,-1.178046227E0,7.584285736E-1
2.629712138E0,1.113156319E0,-9.337841868E-1,2.908649445E-1
2.634712138E0,1.162936568E0,-7.075703144E-1,-1.976156235E-1
2.639712138E0,1.215589046E0,-4.965737462E-1,-7.102851868E-1
2.644712138E0,1.247352481E0,-3.142167330E-1,-1.240832329E0
2.649712138E0,1.233801484E0,-1.584858894E-1,-1.719492912E0
2.654712138E0,1.206116557E0,-3.311812878E-2,-2.170006752E0
2.659712138E0,1.121793985E0,6.210863590E-2,-2.543011665E0
2.664712138E0,1.011342883E0,1.211853027E-1,-2.880705833E0
2.669712138E0,9.147739410E-1,1.701707840E-1,-3.185217381E0
2.674712138E0,7.945432663E-1,1.662206650E-1,-3.432686806E0
2.679712138E0,6.608042717E-1,1.484320164E-1,-3.629183769E0
2.684712138E0,5.214117765E-1,1.330956221E-1,-3.778879166E0
2.689712138E0,3.905553222E-1,7.659041882E-2,-3.872044563E0
2.694712138E0,2.768415213E-1,-4.473209381E-3,-3.941410065E0
2.699712138E0,1.877163053E-1,-9.171724319E-2,-3.955384254E0
2.704712138E0,1.410148144E-1,-1.584140062E-1,-3.927916527E0
2.709712138E0,1.006366163E-1,-2.204818726E-1,-3.826751709E0
2.714712138E0,9.944477677E-2,-2.084589005E-1,-3.684730530E0
2.719712138E0,9.637811780E-2,-1.709697247E-1,-3.554985046E0
2.724712138E0,1.269162595E-1,-1.221152544E-1,-3.462976456E0
2.729712138E0,1.566074044E-1,-7.735526562E-2,-3.349964142E0
2.734712138E0,1.683371812E-1,-3.227722645E-2,-3.269663811E0
2.739712138E0,1.839183271E-1,-2.086377144E-2,-3.191731930E0
2.744712138E0,1.748209596E-1,-3.479564190E-2,-3.106879234E0
2.749712138E0,1.870268881E-1,-6.787896156E-2,-3.077098370E0
2.754712138E0,2.037265897E-1,-1.140320301E-1,-3.060781479E0
2.759712138E0,2.322764397E-1,-1.357452869E-1,-3.054141045E0
2.764712138E0,2.579784095E-1,-1.218384504E-1,-3.049430370E0
2.769712138E0,2.972754836E-1,-7.921373844E-2,-2.990359783E0
2.774712138E0,3.287966549E-1,-3.430926800E-2,-2.932851315E0
2.779712138E0,3.800218701E-1,2.204430103E-2,-2.857707977E0
2.784712138E0,4.401900768E-1,7.892107964E-2,-2.758269310E0
2.789712138E0,5.203949809E-1,1.400318146E-1,-2.645741463E0
2.794712138E0,5.897789598E-1,2.075139284E-1,-2.516270161E0
2.799712138E0,6.117079854E-1,2.460250854E-1,-2.349152565E0
2.804712138E0,5.928204060E-1,2.503038645E-1,-2.167364120E0
2.809712138E0,5.812565088E-1,2.512793541E-1,-2.002199650E0
2.814712138E0,5.590226650E-1,2.424551249E-1,-1.800723076E0
2.819712138E0,4.898375273E-1,2.157860994E-1,-1.602865219E0
2.824712138E0,3.945281506E-1,1.471785307E-1,-1.413539886E0
2.829712138E0,2.767817080E-1,9.230351448E-2,-1.243810654E0
2.834712138E0,1.458862722E-1,3.994143009E-2,-1.100448608E0
2.839712138E0,8.449882269E-3,1.506304741E-2,-1.003575325E0
2.844712138E0,-1.236883253E-1,2.546310425E-4,-9.399805069E-1
2.849712138E0,-2.577790022E-1,-2.862095833E-3,-9.045276642E-1
2.854712138E0,-3.710485101E-1,2.654612064E-2,-9.007654190E-1
2.859712138E0,-4.266696274E-1,9.492301941E-2,-9.040784836E-1
2.864712138E0,-4.360413551E-1,1.983805895E-1,-9.657173157E-1
2.869712138E0,-4.117355347E-1,3.501179218E-1,-1.072629929E0
2.874712138E0,-3.660873175E-1,5.213581324E-1,-1.168495178E0
2.879712138E0,-3.325312734E-1,7.119523287E-1,-1.234782219E0
2.884712138E0,-2.839385569E-1,8.689342737E-1,-1.232662201E0
2.889712138E0,-2.609765530E-1,9.726232290E-1,-1.186788559E0
2.894712138E0,-2.190685868E-1,1.026957393E0,-1.129864693E0
2.899712138E0,-1.737735569E-1,1.068020821E0,-1.063879967E0
2.904712138E0,-1.565776765E-1,1.085622430E0,-9.897146225E-1
2.909712138E0,-1.303233504E-1,1.075461268E0,-8.733148575E-1
2.914712138E0,-1.020754576E-1,1.042289257E0,-7.056865692E-1
2.919712138E0,-7.034468651E-2,1.027957916E0,-5.181550980E-1
2.924712138E0,-5.725562572E-3,1.029833555E0,-3.656835556E-1
2.929712138E0,4.450830817E-2,1.001781106E0,-2.385730743E-1
2.934712138E0,7.606098056E-2,9.799764156E-1,-9.379577637E-2
2.939712138E0,1.258797348E-1,9.423221350E-1,5.892848969E-2
2.944712138E0,1.703336537E-1,8.940280676E-1,2.141637802E-1
2.949712138E0,2.202366292E-1,8.212672472E-1,4.207658768E-1
2.954712138E0,2.467108667E-1,7.341786623E-1,7.042407990E-1
2.959712138E0,2.546736002E-1,6.410380602E-1,1.010254860E0
2.964712138E0,2.655265033E-1,5.452992916E-1,1.332210541E0
2.969712138E0,2.391775101E-1,4.974956512E-1,1.627611160E0
2.974712138E0,1.687283814E-1,4.927510023E-1,1.895044327E0
2.979712138E0,6.213992834E-2,5.507605076E-1,2.120508194E0
2.984712138E0,-3.025487065E-2,6.146191359E-1,2.243274689E0
2.989712138E0,-1.077830344E-1,6.725994349E-1,2.256523132E0
2.994712138E0,-1.526749879E-1,7.085900307E-1,2.180286407E0
2.999712138E0,-1.780910194E-1,7.136749029E-1,2.079603195E0
3.004712138E0,-2.142604440E-1,7.341430187E-1,1.967392921E0
3.009712138E0,-2.271821052E-1,7.730523348E-1,1.918672562E0
3.014712138E0,-2.133182436E-1,8.098986149E-1,1.871174812E0
3.019712138E0,-2.090052068E-1,8.631765842E-1,1.855449677E0
3.024712138E0,-2.337309420E-1,8.841085434E-1,1.890092850E0
3.029712138E0,-2.743753195E-1,8.715496063E-1,2.026716232E0
3.034712138E0,-3.124150336E-1,7.944746017E-1,2.223598480E0
3.039712138E0,-3.287504017E-1,6.343344450E-1,2.399520874E0
3.044712138E0,-3.712154925E-1,3.940100670E-1,2.619617462E0
3.049712138E0,-4.785640836E-1,7.334232330E-2,2.945099831E0
3.054712138E0,-6.293025017E-1,-2.548117042E-1,3.304635048E0
3.059712138E0,-8.181542754E-1,-5.821911693E-1,3.712378502E0
3.064712138E0,-1.041109085E0,-8.868455291E-1,4.012324333E0
3.069712138E0,-1.261486650E0,-1.138452649E0,4.161378860E0
3.074712138E0,-1.460945129E0,-1.305297375E0,4.086287498E0
3.079712138E0,-1.599040627E0,-1.347041607E0,3.771811485E0
3.084712138E0,-1.643203735E0,-1.296383739E0,3.212128639E0
3.089712138E0,-1.569011211E0,-1.129243493E0,2.443206787E0
3.094712138E0,-1.416756511E0,-8.483303189E-1,1.612473488E0
3.099712138E0,-1.229551315E0,-5.050861835E-1,7.882108688E-1
3.104712138E0,-1.012054563E0,-9.377765656E-2,5.661487579E-2
3.109712138E0,-7.568382025E-1,2.970827818E-1,-5.699157715E-1
3.114712138E0,-4.978868663E-1,6.669532061E-1,-1.024792671E0
3.119712138E0,-2.562393546E-1,9.597488642E-1,-1.252807617E0
3.124712138E0,-6.637111306E-2,1.170135498E0,-1.287238121E0
3.129712138E0,8.526185155E-2,1.300858259E0,-1.171805382E0
3.134712138E0,2.200501859E-1,1.311281204E0,-9.182462692E-1
3.139712138E0,2.922798693E-1,1.212073684E0,-4.886140823E-1
3.144712138E0,2.678939700E-1,1.009732723E0,4.781913757E-2
3.149712138E0,2.023328692E-1,6.786342859E-1,6.538791656E-1
3.154712138E0,9.363844991E-2,2.722012997E-1,1.271888733E0
3.159712138E0,-4.656848311E-2,-1.979581118E-1,1.807718277E0
3.164712138E0,-2.041910142E-1,-6.278814673E-1,2.268687248E0
3.169712138E0,-3.690194488E-1,-1.012734890E0,2.657947540E0
3.174712138E0,-5.088896751E-1,-1.310903072E0,2.948711395E0
3.179712138E0,-5.975396037E-1,-1.533374786E0,3.117777824E0
3.184712138E0,-6.463044882E-1,-1.653183699E0,3.125424385E0
3.189712138E0,-6.373620033E-1,-1.698150277E0,2.992511749E0
3.194712138E0,-5.906848907E-1,-1.663756132E0,2.699102402E0
3.199712138E0,-5.179150701E-1,-1.525271416E0,2.268586159E0
3.204712138E0,-4.532571435E-1,-1.316989899E0,1.738771439E0
3.209712138E0,-3.560126722E-1,-1.044883251E0,1.172392845E0
3.214712138E0,-2.402856797E-1,-7.643638849E-1,6.165380478E-1
3.219712138E0,-7.660870999E-2,-5.109241605E-1,7.131576538E-2
3.224712138E0,7.953710854E-2,-3.073548079E-1,-4.443674088E-1
3.229712138E0,1.790515929E-1,-9.560441971E-2,-9.179515839E-1
3.234712138E0,1.969515979E-1,6.850719452E-2,-1.385972977E0
3.239712138E0,1.443383545E-1,1.777231693E-1,-1.813108444E0
3.244712138E0,2.478259802E-2,2.522133589E-1,-2.150150299E0
3.249712138E0,-8.386228979E-2,2.636787891E-1,-2.408515930E0
3.254712138E0,-1.657062471E-1,2.322129011E-1,-2.600402355E0
3.259712138E0,-2.722235918E-1,1.678695679E-1,-2.786850929E0
3.264712138E0,-4.025620222E-1,1.049634218E-1,-2.942837238E0
3.269712138E0,-5.709643364E-1,3.336906433E-2,-3.090304375E0
3.274712138E0,-7.180265188E-1,-6.245577335E-2,-3.220666885E0
3.279712138E0,-8.063536286E-1,-1.485162973E-1,-3.332700729E0
3.284712138E0,-8.646116257E-1,-2.425302863E-1,-3.414702415E0
3.289712138E0,-8.982489109E-1,-3.094439507E-1,-3.473676682E0
3.294712138E0,-8.998346329E-1,-3.465319872E-1,-3.490142822E0
3.299712138E0,-9.113734961E-1,-3.441665173E-1,-3.447360516E0
3.304712138E0,-8.788272142E-1,-3.363810778E-1,-3.388339520E0
3.309712138E0,-7.993680239E-1,-3.229925632E-1,-3.319061279E0
3.314712138E0,-7.301704884E-1,-2.986841202E-1,-3.207305431E0
3.319712138E0,-6.445770264E-1,-2.616767883E-1,-3.081316471E0
3.324712138E0,-5.549461842E-1,-2.046518326E-1,-2.966633797E0
3.329712138E0,-4.543889761E-1,-9.907448292E-2,-2.914009094E0
3.334712138E0,-3.361853659E-1,2.138614655E-2,-2.892530918E0
3.339712138E0,-2.113306224E-1,1.711225510E-1,-2.868533611E0
3.344712138E0,-1.183813512E-1,3.087830544E-1,-2.854583263E0
3.349712138E0,-4.682600498E-2,4.290866852E-1,-2.806788445E0
3.354712138E0,-6.911158562E-3,5.022363663E-1,-2.723971844E0
3.359712138E0,1.280458272E-2,5.532813072E-1,-2.629370689E0
3.364712138E0,9.046033025E-3,5.660150051E-1,-2.502075672E0
3.369712138E0,-1.862548292E-2,5.561847687E-1,-2.367614746E0
3.374712138E0,-5.541519821E-2,5.464338064E-1,-2.183022499E0
3.379712138E0,-9.578973055E-2,5.212509632E-1,-2.012120247E0
3.384712138E0,-1.241390109E-1,4.604204893E-1,-1.851573944E0
3.389712138E0,-1.821288615E-1,4.075349569E-1,-1.677796364E0
3.394712138E0,-2.630592287E-1,3.505270481E-1,-1.459112167E0
3.399712138E0,-3.534173965E-1,3.112893105E-1,-1.208324432E0
3.404712138E0,-4.151667356E-1,2.656394243E-1,-9.436950684E-1
3.409712138E0,-4.961942732E-1,2.318254709E-1,-7.194347382E-1
3.414712138E0,-5.836017132E-1,2.163915634E-1,-5.371780396E-1
3.419712138E0,-6.524094939E-1,2.171776295E-1,-4.207849503E-1
3.424712138E0,-6.858724356E-1,2.183330059E-1,-3.548116684E-1
3.429712138E0,-6.560139656E-1,2.269846201E-1,-3.346958160E-1
3.434712138E0,-5.977455378E-1,2.460516691E-1,-3.017740250E-1
3.439712138E0,-5.438428521E-1,2.594397068E-1,-2.368526459E-1
3.444712138E0,-4.867853522E-1,2.843760252E-1,-1.364212036E-1
3.449712138E0,-4.243407547E-1,3.308053017E-1,-1.682949066E-2
3.454712138E0,-3.249439597E-1,3.696085215E-1,5.199718475E-2
3.459712138E0,-1.669035852E-1,3.817511797E-1,1.046571732E-1
3.464712138E0,-5.007009953E-2,4.117549658E-1,1.496009827E-1
3.469712138E0,5.355791003E-2,4.573639631E-1,2.107353210E-1
3.474712138E0,1.305662543E-1,4.828238487E-1,3.079786301E-1
3.479712138E0,2.005603462E-1,4.989099503E-1,4.199542999E-1
3.484712138E0,2.668958306E-1,4.779658318E-1,5.267810822E-1
3.489712138E0,3.221830428E-1,4.196444750E-1,6.333503723E-1
3.494712138E0,3.322340250E-1,3.315906525E-1,7.391633987E-1
3.499712138E0,3.413310945E-1,2.170741558E-1,8.574867249E-1
3.504712138E0,3.462914228E-1,1.024978161E-1,1.021737099E0
3.509712138E0,3.821638227E-1,-4.804551601E-2,1.210507393E0
3.514712138E0,4.189409018E-1,-1.948884726E-1,1.414364815E0
3.519712138E0,4.114166796E-1,-3.483899832E-1,1.629301071E0
3.524712138E0,3.673722148E-1,-4.382438660E-1,1.807040215E0
3.529712138E0,3.465617895E-1,-4.700924158E-1,1.939771652E0
3.534712138E0,3.452076316E-1,-4.749852419E-1,1.977041245E0
3.539712138E0,4.070408046E-1,-4.213631153E-1,1.949193954E0
3.544712138E0,4.540392756E-1,-3.575158119E-1,1.828320503E0
3.549712138E0,4.901428223E-1,-2.571542263E-1,1.691707611E0
3.554712138E0,5.080371499E-1,-1.280109882E-1,1.532639503E0
3.559712138E0,5.194767714E-1,2.161264420E-2,1.385309219E0
3.564712138E0,5.913030505E-1,1.667768955E-1,1.279672623E0
3.569712138E0,6.904010177E-1,2.927650213E-1,1.239805222E0
3.574712138E0,7.462354898E-1,3.990803957E-1,1.264047623E0
3.579712138E0,7.996326089E-1,4.827778339E-1,1.354501724E0
3.584712138E0,8.290048242E-1,4.846684933E-1,1.525040627E0
3.589712138E0,8.077702522E-1,4.133976698E-1,1.784012794E0
3.594712138E0,7.304787636E-1,2.481386662E-1,2.102226257E0
3.599712138E0,6.147262454E-1,1.356577873E-2,2.458016396E0
3.604712138E0,4.722336233E-1,-2.902570963E-1,2.827278137E0
3.609712138E0,3.240143061E-1,-6.329544783E-1,3.203535080E0
3.614712138E0,1.167230010E-1,-9.804079533E-1,3.641094208E0
3.619712138E0,-1.212604120E-1,-1.260724425E0,4.099147797E0
3.624712138E0,-3.710347712E-1,-1.445801735E0,4.469027519E0
3.629712138E0,-5.964428186E-1,-1.509729385E0,4.674569130E0
3.634712138E0,-7.741364241E-1,-1.492319107E0,4.615222931E0
3.639712138E0,-8.717076182E-1,-1.354252100E0,4.341172218E0
3.644712138E0,-8.687133789E-1,-1.175941706E0,3.878282547E0
3.649712138E0,-7.745478153E-1,-9.796615243E-1,3.218383789E0
3.654712138E0,-6.231452227E-1,-7.451626062E-1,2.477378845E0
3.659712138E0,-4.046147466E-1,-5.389012694E-1,1.763693810E0
3.664712138E0,-1.814441830E-1,-3.326910734E-1,1.158213615E0
3.669712138E0,4.292062670E-2,-1.707202792E-1,6.490688324E-1
3.674712138E0,2.708344758E-1,-6.122064590E-2,2.559738159E-1
3.679712138E0,4.746867418E-1,-6.973743439E-4,-4.891967773E-2
3.684712138E0,6.501440406E-1,4.089045525E-2,-2.483243942E-1
3.689712138E0,7.917112112E-1,5.132651329E-2,-2.986011505E-1
3.694712138E0,8.946160674E-1,6.610274315E-3,-2.845611572E-1
3.699712138E0,9.774788022E-1,-9.549778700E-2,-2.073192596E-1
3.704712138E0,1.059239030E0,-2.091475725E-1,-1.043415070E-1
3.709712138E0,1.117276311E0,-3.371844292E-1,9.154319763E-3
3.714712138E0,1.171564579E0,-4.689042568E-1,6.212902069E-2
3.719712138E0,1.198654532E0,-5.736824274E-1,1.163196564E-1
3.724712138E0,1.233199239E0,-6.787949800E-1,2.013740540E-1
3.729712138E0,1.227313519E0,-7.348857522E-1,3.284568787E-1
3.734712138E0,1.252574444E0,-7.455718517E-1,4.567661285E-1
3.739712138E0,1.274499655E0,-7.505543232E-1,6.190338135E-1
3.744712138E0,1.291171670E0,-7.440967560E-1,7.687187195E-1
3.749712138E0,1.335322380E0,-7.302948236E-1,8.513689041E-1
3.754712138E0,1.392916799E0,-6.728357673E-1,7.967834473E-1
3.759712138E0,1.440286279E0,-5.924329162E-1,6.313991547E-1
3.764712138E0,1.494527340E0,-4.846086502E-1,3.671760559E-1
3.769712138E0,1.494138479E0,-3.736256957E-1,4.312038422E-2
3.774712138E0,1.442856550E0,-2.713075876E-1,-2.778654099E-1
3.779712138E0,1.367280126E0,-2.040941715E-1,-6.132087708E-1
3.784712138E0,1.254789829E0,-1.740840673E-1,-9.491262436E-1
3.789712138E0,1.150317430E0,-1.727286577E-1,-1.235960007E0
3.794712138E0,1.039198279E0,-1.943725348E-1,-1.505982399E0
3.799712138E0,9.531288743E-1,-2.279254794E-1,-1.751091957E0
3.804712138E0,8.610010147E-1,-2.359539270E-1,-1.980879784E0
3.809712138E0,7.656444907E-1,-2.287738323E-1,-2.176358223E0
3.814712138E0,6.740227342E-1,-1.985142231E-1,-2.340734005E0
3.819712138E0,5.813015103E-1,-1.667690277E-1,-2.472671032E0
3.824712138E0,4.860567451E-1,-1.509410143E-1,-2.592765808E0
3.829712138E0,4.098765850E-1,-1.603766680E-1,-2.688134670E0
3.834712138E0,3.494697809E-1,-1.745715141E-1,-2.788695335E0
3.839712138E0,3.085039258E-1,-1.947251558E-1,-2.859913826E0
3.844712138E0,2.878394127E-1,-2.044601440E-1,-2.929744720E0
3.849712138E0,2.666092813E-1,-1.997792721E-1,-2.991631508E0
3.854712138E0,2.897582650E-1,-1.903406382E-1,-3.058725357E0
3.859712138E0,3.078798950E-1,-1.569793224E-1,-3.112184048E0
3.864712138E0,3.512927294E-1,-9.332227707E-2,-3.128087997E0
3.869712138E0,4.027385116E-1,-3.354239464E-2,-3.152974129E0
3.874712138E0,4.769551754E-1,4.648447037E-2,-3.166010380E0
3.879712138E0,5.483078957E-1,1.472755671E-1,-3.136789322E0
3.884712138E0,6.047991514E-1,2.492619753E-1,-3.108661652E0
3.889712138E0,6.517339349E-1,3.152127266E-1,-3.061152935E0
3.894712138E0,7.004826069E-1,3.941733837E-1,-3.012840748E0
3.899712138E0,7.341668010E-1,4.332150221E-1,-2.970547676E0
3.904712138E0,7.579723597E-1,4.686728716E-1,-2.927963734E0
3.909712138E0,7.562235594E-1,4.648270607E-1,-2.842008591E0
3.914712138E0,7.427763343E-1,4.376795292E-1,-2.753161430E0
3.919712138E0,7.133558393E-1,4.251272678E-1,-2.623350620E0
3.924712138E0,7.015511990E-1,4.206073284E-1,-2.485002995E0
3.929712138E0,7.157928944E-1,4.185817242E-1,-2.378281593E0
3.934712138E0,7.164723873E-1,4.145634174E-1,-2.260567665E0
3.939712138E0,7.128939629E-1,4.140430689E-1,-2.133237839E0
3.944712138E0,6.880680323E-1,4.031363726E-1,-1.973888397E0
3.949712138E0,6.509457827E-1,4.053293467E-1,-1.772113800E0
3.954712138E0,5.944337249E-1,4.131094217E-1,-1.556279182E0
3.959712138E0,5.687369108E-1,4.368624687E-1,-1.319259644E0
3.964712138E0,5.394287109E-1,4.762575626E-1,-1.087541580E0
3.969712138E0,5.212845802E-1,5.123167038E-1,-9.226636887E-1
3.974712138E0,5.104100108E-1,5.601661205E-1,-7.807846069E-1
3.979712138E0,4.406309128E-1,5.902552605E-1,-6.751461029E-1
3.984712138E0,3.482946157E-1,6.077455282E-1,-5.699157715E-1
3.989712138E0,2.475124151E-1,6.112241745E-1,-4.898014069E-1
3.994712138E0,1.681581736E-1,6.018273830E-1,-4.568996429E-1
3.999712138E0,9.525537491E-2,5.973469019E-1,-4.941539764E-1
4.004712138E0,9.934604168E-4,5.953645706E-1,-5.917568207E-1
4.009712138E0,-6.879630685E-2,5.862751007E-1,-7.291049957E-1
4.014712138E0,-1.126343906E-1,6.199295521E-1,-8.630723953E-1
4.019712138E0,-1.195698678E-1,6.604400873E-1,-9.924077988E-1
4.024712138E0,-9.478199482E-2,7.671539783E-1,-1.094499588E0
4.029712138E0,-2.599358559E-2,8.915235996E-1,-1.152024269E0
4.034712138E0,4.524227977E-2,1.027266622E0,-1.157508850E0
4.039712138E0,1.172765791E-1,1.183246017E0,-1.116121292E0
4.044712138E0,1.758339554E-1,1.318551898E0,-9.880943298E-1
4.049712138E0,2.462780476E-1,1.421064496E0,-8.317375183E-1
4.054712138E0,2.981221378E-1,1.511988997E0,-6.449356079E-1
4.059712138E0,3.264081776E-1,1.547973275E0,-4.275827408E-1
4.064712138E0,3.380337358E-1,1.525402546E0,-1.864910126E-1
4.069712138E0,3.402937353E-1,1.463680863E0,5.791950226E-2
4.074712138E0,3.205212355E-1,1.332054377E0,3.425502777E-1
4.079712138E0,3.158479333E-1,1.153781652E0,6.686840057E-1
4.084712138E0,3.054854274E-1,9.445483685E-1,1.030059814E0
4.089712138E0,2.587528825E-1,7.122054100E-1,1.428148270E0
4.094712138E0,1.897596121E-1,4.999873638E-1,1.802046776E0
4.099712138E0,8.955496550E-2,3.143230677E-1,2.178677559E0
4.104712138E0,-1.620104909E-2,1.980170012E-1,2.498523712E0
4.109712138E0,-1.278474033E-1,1.748219728E-1,2.740723610E0
4.114712138E0,-1.989503503E-1,2.205573320E-1,2.830902100E0
4.119712138E0,-2.119965851E-1,3.088699579E-1,2.793138504E0
4.124712138E0,-2.131402194E-1,3.836891651E-1,2.650332451E0
4.129712138E0,-1.711324155E-1,4.443243742E-1,2.446358681E0
4.134712138E0,-1.270199120E-1,5.230365992E-1,2.217847824E0
4.139712138E0,-1.136770248E-1,6.229236126E-1,1.980229378E0
4.144712138E0,-9.024792910E-2,7.010107040E-1,1.779408455E0
4.149712138E0,-1.042973995E-1,7.505682707E-1,1.632253647E0
4.154712138E0,-1.026084125E-1,7.359130383E-1,1.574827194E0
4.159712138E0,-1.210134327E-1,6.542178392E-1,1.650527000E0
4.164712138E0,-1.363373697E-1,5.042607784E-1,1.818939209E0
4.169712138E0,-1.610138416E-1,3.128030300E-1,2.064669609E0
4.174712138E0,-2.078571320E-1,1.130032539E-1,2.335238457E0
4.179712138E0,-2.894242704E-1,-7.932686806E-2,2.583116531E0
4.184712138E0,-4.062595367E-1,-2.605142593E-1,2.806788445E0
4.189712138E0,-5.360623598E-1,-4.144949913E-1,3.009319305E0
4.194712138E0,-6.718648076E-1,-5.623240471E-1,3.090950966E0
4.199712138E0,-7.887194157E-1,-6.957830191E-1,3.038087845E0
4.204712138E0,-8.882519603E-1,-8.113822937E-1,2.753542900E0
4.209712138E0,-9.710312486E-1,-8.798567057E-1,2.341530800E0
4.214712138E0,-1.048530579E0,-8.897744417E-1,1.873291969E0
4.219712138E0,-1.089596033E0,-8.357470036E-1,1.404946327E0
4.224712138E0,-1.052737355E0,-7.343134284E-1,9.838495255E-1
4.229712138E0,-9.252423644E-1,-5.893670321E-1,6.613416672E-1
4.234712138E0,-7.202016711E-1,-4.665639400E-1,4.530239105E-1
4.239712138E0,-4.360529184E-1,-3.545477390E-1,3.085498810E-1
4.244712138E0,-1.241386533E-1,-2.395738363E-1,1.947984695E-1
4.249712138E0,1.592339277E-1,-1.287784576E-1,2.430686951E-1
4.254712138E0,4.109838307E-1,-3.891980648E-2,4.654140472E-1
4.259712138E0,5.959370732E-1,-1.180088520E-2,8.800115585E-1
4.264712138E0,7.183411717E-1,-5.012404919E-2,1.395206451E0
4.269712138E0,8.338195086E-1,-1.321552992E-1,1.935971260E0
4.274712138E0,9.246353507E-1,-2.633363008E-1,2.388317108E0
4.279712138E0,9.681923389E-1,-4.210957289E-1,2.770480156E0
4.284712138E0,9.283649921E-1,-6.058474779E-1,3.075450897E0
4.289712138E0,8.557883501E-1,-8.021215200E-1,3.234230995E0
4.294712138E0,7.486701012E-1,-9.663883448E-1,3.229083061E0
4.299712138E0,6.243858933E-1,-1.112124920E0,3.106279373E0
4.304712138E0,4.950802028E-1,-1.199805737E0,2.812050819E0
4.309712138E0,4.108083248E-1,-1.233286619E0,2.378521919E0
4.314712138E0,3.810713887E-1,-1.208909392E0,1.831937790E0
4.319712138E0,3.515208364E-1,-1.109777451E0,1.218661308E0
4.324712138E0,3.955720067E-1,-9.732310176E-1,6.368579865E-1
4.329712138E0,4.467635155E-1,-7.896020412E-1,4.060745239E-2
4.334712138E0,4.908088446E-1,-5.992757678E-1,-4.774923325E-1
4.339712138E0,5.094707012E-1,-4.260884523E-1,-9.155168533E-1
4.344712138E0,5.059469938E-1,-2.758171558E-1,-1.261373520E0
4.349712138E0,4.679852128E-1,-1.579152346E-1,-1.526071548E0
4.354712138E0,4.319007993E-1,-7.710802555E-2,-1.750457764E0
4.359712138E0,3.799713850E-1,-3.558886051E-2,-1.964384079E0
4.364712138E0,3.105932176E-1,7.604718208E-3,-2.163038731E0
4.369712138E0,2.072451413E-1,3.153514862E-2,-2.361189842E0
4.374712138E0,7.617446780E-2,3.011691570E-2,-2.527709961E0
4.379712138E0,-5.485454202E-2,1.041197777E-2,-2.681513786E0
4.384712138E0,-1.694371998E-1,-2.875471115E-2,-2.796080589E0
4.389712138E0,-2.554847896E-1,-7.235479355E-2,-2.872010231E0
4.394712138E0,-3.138091266E-1,-1.393238306E-1,-2.984380722E0
4.399712138E0,-3.872352242E-1,-1.903685331E-1,-3.068814754E0
4.404712138E0,-4.567386806E-1,-2.371587753E-1,-3.120071888E0
4.409712138E0,-5.063419342E-1,-2.539939880E-1,-3.155526161E0
4.414712138E0,-5.425756574E-1,-2.431592941E-1,-3.220954895E0
4.419712138E0,-5.223237276E-1,-2.301373482E-1,-3.309974670E0
4.424712138E0,-4.871855676E-1,-2.048865557E-1,-3.367385864E0
4.429712138E0,-4.372249246E-1,-1.324344873E-1,-3.435894966E0
4.434712138E0,-3.527314663E-1,-6.682455540E-2,-3.481910706E0
4.439712138E0,-2.549060285E-1,2.190256119E-2,-3.502260685E0
4.444712138E0,-1.513592899E-1,1.275939941E-1,-3.500767708E0
4.449712138E0,-4.441609979E-2,2.338268757E-1,-3.475247860E0
4.454712138E0,8.808571100E-2,3.478739262E-1,-3.398405075E0
4.459712138E0,1.969722211E-1,4.194147587E-1,-3.302085876E0
4.464712138E0,2.827297449E-1,4.991378784E-1,-3.189805031E0
4.469712138E0,3.544015884E-1,5.532860756E-1,-3.058592319E0
4.474712138E0,4.293146729E-1,6.100366116E-1,-2.939052582E0
4.479712138E0,4.627017975E-1,6.407665014E-1,-2.778046131E0
4.484712138E0,4.586737156E-1,6.454679966E-1,-2.568643093E0
4.489712138E0,4.412497878E-1,6.489428282E-1,-2.317474365E0
4.494712138E0,4.329936504E-1,6.339426041E-1,-2.088650227E0
4.499712138E0,3.827168941E-1,5.837546587E-1,-1.876449585E0
4.504712138E0,3.123154640E-1,5.311415195E-1,-1.689323425E0
4.509712138E0,1.990382075E-1,4.694752693E-1,-1.518208504E0
4.514712138E0,8.474646509E-2,3.846435547E-1,-1.386713028E0
4.519712138E0,-1.836203411E-2,2.693917751E-1,-1.232771873E0
4.524712138E0,-1.440544575E-1,1.427671909E-1,-1.069031715E0
4.529712138E0,-2.680609822E-1,7.139849663E-2,-9.503316879E-1
4.534712138E0,-3.801434636E-1,1.727700233E-2,-8.735475540E-1
4.539712138E0,-4.733316302E-1,2.820336819E-2,-8.223972321E-1
4.544712138E0,-4.927898347E-1,6.554281712E-2,-8.264436722E-1
4.549712138E0,-4.813477397E-1,1.432857513E-1,-8.575296402E-1
4.554712138E0,-4.427891374E-1,2.289084196E-1,-8.634138107E-1
4.559712138E0,-3.907959461E-1,3.518521786E-1,-8.400049210E-1
4.564712138E0,-2.802438438E-1,4.618556499E-1,-7.746276855E-1
4.569712138E0,-1.322915852E-1,5.386894941E-1,-6.761274338E-1
4.574712138E0,1.249923743E-2,5.961762667E-1,-5.184345245E-1
4.579712138E0,1.582882106E-1,6.275877953E-1,-3.639039993E-1
4.584712138E0,2.775498331E-1,6.350927353E-1,-1.921148300E-1
4.589712138E0,3.571324050E-1,6.239906549E-1,-4.555225372E-2
4.594712138E0,4.275750518E-1,5.632199049E-1,9.115028381E-2
4.599712138E0,4.892091155E-1,4.728325605E-1,2.599401474E-1
4.604712138E0,5.577421188E-1,3.411977291E-1,4.278030396E-1
4.609712138E0,6.209558845E-1,1.538773775E-1,5.949592590E-1
4.614712138E0,6.658422947E-1,-6.767392159E-3,7.623834610E-1
4.619712138E0,7.075575590E-1,-1.486074924E-1,9.661760330E-1
4.624712138E0,7.184822559E-1,-2.387868166E-1,1.210227966E0
4.629712138E0,7.465009689E-1,-3.229422569E-1,1.497107506E0
4.634712138E0,8.183690310E-1,-3.990008831E-1,1.832355499E0
4.639712138E0,8.382537365E-1,-4.561183453E-1,2.181715965E0
4.644712138E0,8.348710537E-1,-5.070226192E-1,2.515237808E0
4.649712138E0,7.880603075E-1,-5.332163572E-1,2.810132027E0
4.654712138E0,7.245347500E-1,-5.188258886E-1,2.993386269E0
4.659712138E0,6.466100216E-1,-4.635319710E-1,3.026849747E0
4.664712138E0,5.497848988E-1,-3.810209036E-1,2.880799294E0
4.669712138E0,4.701000452E-1,-3.022907972E-1,2.560686111E0
4.674712138E0,4.022180736E-1,-2.295113802E-1,2.189261436E0
4.679712138E0,3.824286461E-1,-1.448670626E-1,1.858308792E0
4.684712138E0,4.212192297E-1,-3.072047234E-2,1.592046738E0
4.689712138E0,4.885681272E-1,1.090312004E-1,1.459003448E0
4.694712138E0,5.883442163E-1,2.235459089E-1,1.454383850E0
4.699712138E0,7.127439380E-1,3.181997538E-1,1.517565727E0
4.704712138E0,8.658608794E-1,3.825110197E-1,1.686314583E0
4.709712138E0,1.031880140E0,4.089018106E-1,1.957715988E0
4.714712138E0,1.223545909E0,4.053832293E-1,2.333138466E0
4.719712138E0,1.370736718E0,3.646420240E-1,2.800745010E0
4.724712138E0,1.456473470E0,2.864474058E-1,3.381005287E0
4.729712138E0,1.470103979E0,1.923857927E-1,3.932446480E0
4.734712138E0,1.434299231E0,7.935333252E-2,4.379212379E0
4.739712138E0,1.341715455E0,-7.464289665E-2,4.659686089E0
4.744712138E0,1.170108438E0,-2.411389351E-1,4.755121231E0
4.749712138E0,9.650991559E-1,-4.188351631E-1,4.630006790E0
4.754712138E0,7.256195545E-1,-5.358215570E-1,4.309043884E0
4.759712138E0,5.426570177E-1,-6.076885462E-1,3.846799850E0
4.764712138E0,4.286099672E-1,-6.365637779E-1,3.232035637E0
4.769712138E0,3.778840303E-1,-6.020452976E-1,2.577699661E0
4.774712138E0,4.252771735E-1,-5.382355452E-1,1.917066574E0
4.779712138E0,5.241031647E-1,-4.191889763E-1,1.337618828E0
4.784712138E0,6.596627831E-1,-2.616883516E-1,8.255186081E-1
4.789712138E0,8.205503821E-1,-1.181786060E-1,4.238138199E-1
4.794712138E0,9.345206022E-1,8.663773537E-3,1.344995499E-1
4.799712138E0,1.008095980E0,1.062210798E-1,-4.504299164E-2
4.804712138E0,1.088780642E0,1.417394876E-1,-1.128015518E-1
4.809712138E0,1.201700687E0,1.040004492E-1,-9.095859528E-2
4.814712138E0,1.264250159E0,6.017839909E-2,-8.440017700E-4
4.819712138E0,1.326214314E0,-3.345727921E-3,9.287738800E-2
4.824712138E0,1.396049023E0,-7.151472569E-2,1.912193298E-1
4.829712138E0,1.468099236E0,-1.056132317E-1,3.063716888E-1
4.834712138E0,1.518970013E0,-1.511206627E-1,3.981904984E-1
4.839712138E0,1.571250916E0,-1.687400341E-1,4.665575027E-1
4.844712138E0,1.627110600E0,-1.984370947E-1,4.974536896E-1
4.849712138E0,1.678427815E0,-2.309745550E-1,5.299510956E-1
4.854712138E0,1.735882401E0,-2.639411688E-1,5.492200851E-1
4.859712138E0,1.799516559E0,-2.838993073E-1,5.568914413E-1
4.864712138E0,1.884677887E0,-2.822055817E-1,5.454368591E-1
4.869712138E0,1.960748076E0,-2.561707497E-1,5.142574310E-1
4.874712138E0,2.019094944E0,-2.269690037E-1,4.798603058E-1
4.879712138E0,2.091172934E0,-1.749752760E-1,4.302988052E-1
4.884712138E0,2.148024797E0,-9.608721733E-2,3.234081268E-1
4.889712138E0,2.170019865E0,-4.145729542E-2,1.997613907E-1
4.894712138E0,2.103032112E0,-1.618719101E-2,7.408809662E-2
4.899712138E0,1.975809813E0,-5.352258682E-2,-8.184051514E-2
4.904712138E0,1.811030507E0,-1.004530191E-1,-2.735023499E-1
4.909712138E0,1.601788878E0,-1.677314043E-1,-5.133018494E-1
4.914712138E0,1.396337390E0,-2.519818544E-1,-7.865982056E-1
4.919712138E0,1.192368388E0,-3.380379677E-1,-1.122500420E0
4.924712138E0,9.969244599E-1,-3.733296394E-1,-1.462201118E0
4.929712138E0,8.417013288E-1,-3.853855133E-1,-1.802832603E0
4.934712138E0,7.019982934E-1,-3.830889463E-1,-2.167447090E0
4.939712138E0,5.767565370E-1,-3.741335869E-1,-2.495207787E0
4.944712138E0,4.856974781E-1,-3.518441916E-1,-2.808564186E0
4.949712138E0,4.363245964E-1,-2.845126390E-1,-3.103210449E0
4.954712138E0,4.030838013E-1,-2.121469975E-1,-3.340377808E0
4.959712138E0,3.691611886E-1,-1.278160810E-1,-3.535234451E0
4.964712138E0,3.419719338E-1,-6.127285957E-2,-3.702416420E0
4.969712138E0,3.364039063E-1,-1.500666142E-2,-3.852053165E0
4.974712138E0,3.364443183E-1,1.058495045E-2,-3.945471764E0
4.979712138E0,3.639957905E-1,4.762899876E-2,-4.010484695E0
4.984712138E0,3.967165947E-1,9.804689884E-2,-4.047673225E0
4.989712138E0,4.165078402E-1,1.651463509E-1,-4.071784973E0
4.994712138E0,4.159917235E-1,2.113571167E-1,-4.048780441E0
4.999712138E0,4.135220945E-1,2.345613241E-1,-3.993448734E0
5.004712138E0,4.515991211E-1,2.358125448E-1,-3.903120518E0
5.009712138E0,5.188505054E-1,2.663151026E-1,-3.783071518E0
5.014712138E0,5.508413315E-1,2.846053839E-1,-3.646293163E0
5.019712138E0,5.722930431E-1,3.179831505E-1,-3.478976250E0
5.024712138E0,5.713438988E-1,3.341215849E-1,-3.259919643E0
5.029712138E0,5.807456374E-1,3.207613230E-1,-3.030835629E0
5.034712138E0,5.874363780E-1,2.905635834E-1,-2.809574604E0
5.039712138E0,5.764859319E-1,2.403199673E-1,-2.580844402E0
5.044712138E0,5.838019848E-1,1.971865892E-1,-2.280995846E0
5.049712138E0,5.936965346E-1,1.534674168E-1,-1.975727081E0
5.054712138E0,5.802392960E-1,1.313302517E-1,-1.671988010E0
5.059712138E0,5.554817915E-1,1.565119028E-1,-1.469217300E0
5.064712138E0,5.138788223E-1,1.749391556E-1,-1.364768028E0
5.069712138E0,4.743671417E-1,1.800067425E-1,-1.278026581E0
5.074712138E0,4.336362481E-1,1.731349230E-1,-1.260554314E0
5.079712138E0,3.838868439E-1,1.662685871E-1,-1.226603508E0
5.084712138E0,3.616592288E-1,1.860282421E-1,-1.172561646E0
5.089712138E0,3.493299782E-1,2.618480921E-1,-1.136033058E0
5.094712138E0,3.243792355E-1,3.367264271E-1,-1.078720093E0
5.099712138E0,2.513923049E-1,4.266543388E-1,-1.008893013E0
5.104712138E0,1.624602377E-1,4.916446209E-1,-9.366865158E-1
5.109712138E0,7.815188169E-2,5.263460875E-1,-8.574104309E-1
5.114712138E0,-1.572638750E-3,5.345100164E-1,-7.632589340E-1
5.119712138E0,-5.880439281E-2,5.258998871E-1,-6.233863831E-1
5.124712138E0,-4.487985373E-2,5.098512173E-1,-5.102615356E-1
5.129712138E0,-1.366299391E-2,5.251532793E-1,-4.043254852E-1
5.134712138E0,-2.310156822E-3,5.942301750E-1,-3.536901474E-1
5.139712138E0,8.606791496E-3,6.498892307E-1,-3.151283264E-1
5.144712138E0,1.562997699E-2,7.249519825E-1,-3.092775345E-1
5.149712138E0,5.078902841E-2,8.083379269E-1,-3.147392273E-1
5.154712138E0,1.043974459E-1,8.591301441E-1,-3.178548813E-1
5.159712138E0,2.108403742E-1,8.779723644E-1,-2.956209183E-1
5.164712138E0,3.250086904E-1,8.538470268E-1,-2.018718719E-1
5.169712138E0,4.261881709E-1,7.985060215E-1,-1.460933685E-2
5.174712138E0,5.195494294E-1,7.520279884E-1,2.658586502E-1
5.179712138E0,6.216123104E-1,6.999933720E-1,6.000051498E-1
5.184712138E0,7.412935495E-1,6.462008953E-1,1.001828194E0
5.189712138E0,8.232529163E-1,6.125707626E-1,1.450299263E0
5.194712138E0,8.407117128E-1,6.195430756E-1,1.929100990E0
5.199712138E0,7.902801037E-1,6.308908463E-1,2.393919945E0
5.204712138E0,6.761671305E-1,6.893560886E-1,2.790468216E0
5.209712138E0,5.432714224E-1,7.786765099E-1,2.981404305E0
5.214712138E0,3.905398250E-1,8.581650257E-1,2.933893204E0
5.219712138E0,2.118655443E-1,9.256315231E-1,2.645895004E0
5.224712138E0,3.345921636E-2,9.709551334E-1,2.250946045E0
5.229712138E0,-1.013759673E-1,1.000252485E0,1.840593338E0
5.234712138E0,-2.069490254E-1,9.861862659E-1,1.484087944E0
5.239712138E0,-2.264258564E-1,9.528572559E-1,1.240028381E0
5.244712138E0,-2.715488672E-1,9.178581238E-1,1.070257187E0
5.249712138E0,-2.812722921E-1,8.617267609E-1,9.733905792E-1
5.254712138E0,-2.600578666E-1,7.338974476E-1,9.767742157E-1
5.259712138E0,-2.156247497E-1,5.395030975E-1,1.122780800E0
5.264712138E0,-1.506524086E-1,2.681078911E-1,1.446443558E0
5.269712138E0,-1.142100096E-1,-4.809856415E-3,1.947664261E0
5.274712138E0,-5.837816000E-2,-2.571923733E-1,2.540814400E0
5.279712138E0,-5.215626955E-2,-4.541574717E-1,3.090187073E0
5.284712138E0,-7.380193472E-2,-5.997647047E-1,3.574582100E0
5.289712138E0,-1.162939668E-1,-6.526162624E-1,3.906185150E0
5.294712138E0,-2.174698710E-1,-6.763554811E-1,4.062365532E0
5.299712138E0,-2.863563299E-1,-6.756836176E-1,4.068902969E0
5.304712138E0,-3.382853270E-1,-6.661649942E-1,3.923298836E0
5.309712138E0,-3.781238198E-1,-6.155579090E-1,3.622372627E0
5.314712138E0,-3.868072033E-1,-5.265884399E-1,3.136054993E0
5.319712138E0,-3.200350404E-1,-4.003137350E-1,2.625762939E0
5.324712138E0,-1.975831389E-1,-2.469531298E-1,2.129055023E0
5.329712138E0,-2.591788769E-2,-8.886682987E-2,1.664491653E0
5.334712138E0,1.643225551E-1,5.125367641E-2,1.250522614E0
5.339712138E0,3.582317829E-1,1.323066950E-1,9.025745392E-1
5.344712138E0,5.268847942E-1,1.476370096E-1,7.212190628E-1
5.349712138E0,6.874492168E-1,1.155281067E-1,7.800636292E-1
5.354712138E0,8.849918842E-1,5.598425865E-2,1.046878815E0
5.359712138E0,1.084391356E0,-4.024684429E-2,1.496435165E0
5.364712138E0,1.264382362E0,-1.703020334E-1,2.004277229E0
5.369712138E0,1.426602960E0,-2.897145748E-1,2.457309723E0
5.374712138E0,1.505571842E0,-4.120965004E-1,2.843834877E0
5.379712138E0,1.511504650E0,-5.293731689E-1,3.081885338E0
5.384712138E0,1.494547725E0,-6.571149826E-1,3.202697754E0
5.389712138E0,1.434038877E0,-7.819355726E-1,3.129827499E0
5.394712138E0,1.329360604E0,-8.945264816E-1,2.895806313E0
5.399712138E0,1.213706970E0,-9.641783237E-1,2.526328087E0
5.404712138E0,1.108361959E0,-9.876815677E-1,2.066220284E0
5.409712138E0,1.046936750E0,-9.603146315E-1,1.556737900E0
5.414712138E0,1.028219342E0,-8.833890557E-1,9.998703003E-1
5.419712138E0,9.848760366E-1,-7.792645693E-1,4.422607422E-1
5.424712138E0,9.291135669E-1,-6.408778429E-1,-1.365756989E-1
5.429712138E0,8.982082605E-1,-5.568355322E-1,-7.332086563E-1
5.434712138E0,8.435152769E-1,-4.579211473E-1,-1.278615952E0
5.439712138E0,7.613525391E-1,-3.811912537E-1,-1.722298622E0
5.444712138E0,6.563764811E-1,-3.280339241E-1,-2.071448326E0
5.449712138E0,5.346916914E-1,-2.842315435E-1,-2.314928055E0
5.454712138E0,4.274629653E-1,-2.700910568E-1,-2.478077888E0
5.459712138E0,3.013283610E-1,-2.823438644E-1,-2.577084541E0
5.464712138E0,1.728929281E-1,-3.316946030E-1,-2.640522003E0
5.469712138E0,4.715651274E-2,-3.990987539E-1,-2.666523457E0
5.474712138E0,-5.983817577E-2,-4.631021023E-1,-2.669504166E0
5.479712138E0,-1.700040698E-1,-5.303757191E-1,-2.689499855E0
5.484712138E0,-2.617270350E-1,-5.636466742E-1,-2.748539925E0
5.489712138E0,-3.209260106E-1,-5.704421997E-1,-2.811614037E0
5.494712138E0,-3.631196022E-1,-5.612907410E-1,-2.862847805E0
5.499712138E0,-3.951595426E-1,-5.566643476E-1,-2.958363533E0
5.504712138E0,-4.265487790E-1,-5.385060310E-1,-3.047075272E0
5.509712138E0,-4.381256104E-1,-5.251822472E-1,-3.134700775E0
5.514712138E0,-4.478508234E-1,-5.153012276E-1,-3.168915272E0
5.519712138E0,-4.714723229E-1,-5.172021389E-1,-3.180199623E0
5.524712138E0,-4.785206318E-1,-5.341334343E-1,-3.121817112E0
5.529712138E0,-4.739536047E-1,-5.689169168E-1,-2.992702961E0
5.534712138E0,-4.387321472E-1,-5.589075089E-1,-2.787404537E0
5.539712138E0,-3.490645289E-1,-5.621377230E-1,-2.598229885E0
5.544712138E0,-2.316078544E-1,-5.439958572E-1,-2.450942993E0
5.549712138E0,-1.070766747E-1,-4.702638388E-1,-2.340119362E0
5.554712138E0,4.500108957E-2,-3.845596313E-1,-2.248948097E0
5.559712138E0,2.237492204E-1,-2.715702057E-1,-2.158100128E0
5.564712138E0,3.880182803E-1,-1.856307983E-1,-2.050784111E0
5.569712138E0,5.148514509E-1,-9.286761284E-2,-1.948290348E0
5.574712138E0,5.930836201E-1,-6.836891174E-3,-1.877083302E0
5.579712138E0,6.477795839E-1,5.901551247E-2,-1.817576408E0
5.584712138E0,6.623559594E-1,6.999564171E-2,-1.754122734E0
5.589712138E0,6.539755464E-1,2.858543396E-2,-1.698003769E0
5.594712138E0,6.047019958E-1,-1.476907730E-2,-1.582104683E0
5.599712138E0,4.996607900E-1,-6.023144722E-2,-1.477318764E0
5.604712138E0,3.670580387E-1,-1.071333885E-1,-1.363045692E0
5.609712138E0,2.376816273E-1,-1.484665871E-1,-1.293160439E0
5.614712138E0,1.304723620E-1,-1.738011837E-1,-1.261281013E0
5.619712138E0,1.784575731E-2,-1.732246876E-1,-1.268304825E0
5.624712138E0,-1.184887290E-1,-1.738862991E-1,-1.327590942E0
5.629712138E0,-2.360547334E-1,-1.590776443E-1,-1.426509857E0
5.634712138E0,-3.471199572E-1,-1.590242386E-1,-1.521447659E0
5.639712138E0,-4.296167195E-1,-1.358387470E-1,-1.614809990E0
5.644712138E0,-5.071808696E-1,-8.442497253E-2,-1.686872482E0
5.649712138E0,-5.201878548E-1,2.063989639E-3,-1.764574051E0
5.654712138E0,-4.787710607E-1,1.122782230E-1,-1.812414646E0
5.659712138E0,-3.882603049E-1,2.164835930E-1,-1.811516285E0
5.664712138E0,-2.785054445E-1,3.306686878E-1,-1.760488033E0
5.669712138E0,-1.410250813E-1,4.099311829E-1,-1.631772995E0
5.674712138E0,-2.056000754E-3,4.592616558E-1,-1.445682526E0
5.679712138E0,1.446024626E-1,4.255142212E-1,-1.212945938E0
5.684712138E0,2.975426316E-1,3.622894287E-1,-9.247722626E-1
5.689712138E0,4.103493690E-1,2.942185402E-1,-5.590114594E-1
5.694712138E0,4.925349653E-1,2.454695702E-1,-9.120941162E-2
5.699712138E0,5.385552049E-1,1.954300404E-1,3.472852707E-1
5.704712138E0,5.661474466E-1,1.204276085E-1,7.230329514E-1
5.709712138E0,5.502585173E-1,-1.307678223E-2,1.067668915E0
5.714712138E0,5.046772361E-1,-1.792836189E-1,1.389214516E0
5.719712138E0,4.609099030E-1,-3.763144016E-1,1.655611992E0
5.724712138E0,4.098008871E-1,-6.013376713E-1,1.876389503E0
5.729712138E0,3.559172750E-1,-8.214340210E-1,2.030447006E0
5.734712138E0,2.601118088E-1,-9.998919964E-1,2.122738838E0
5.739712138E0,1.928249896E-1,-1.132046938E0,2.166602135E0
5.744712138E0,1.377643049E-1,-1.226943493E0,2.151127815E0
5.749712138E0,1.130034924E-1,-1.201868534E0,2.069619179E0
5.754712138E0,7.187891006E-2,-1.115469456E0,1.947241783E0
5.759712138E0,4.408770800E-2,-9.311800003E-1,1.755723000E0
5.764712138E0,1.971098781E-2,-6.782400608E-1,1.487462044E0
5.769712138E0,5.885624886E-2,-4.326716661E-1,1.138257980E0
5.774712138E0,1.841981411E-1,-1.840624809E-1,7.855463028E-1
5.779712138E0,3.311310410E-1,2.838587761E-2,4.081125259E-1
5.784712138E0,4.398135543E-1,2.185492516E-1,5.348300934E-2
5.789712138E0,5.398173332E-1,4.094452858E-1,-1.738777161E-1
5.794712138E0,6.696403623E-1,5.715272427E-1,-1.983842850E-1
5.799712138E0,8.894535303E-1,6.653242111E-1,-5.940818787E-2
5.804712138E0,1.144372940E0,6.836576462E-1,2.429542542E-1
5.809712138E0,1.317147136E0,6.804420948E-1,6.382598877E-1
5.814712138E0,1.475140572E0,6.037168503E-1,1.114304543E0
5.819712138E0,1.631750345E0,4.725096226E-1,1.658688545E0
5.824712138E0,1.701308012E0,3.208625317E-1,2.232211113E0
5.829712138E0,1.657818437E0,1.613745689E-1,2.781817436E0
5.834712138E0,1.517833948E0,4.142320156E-2,3.252895355E0
5.839712138E0,1.330920458E0,-4.293906689E-2,3.596033096E0
5.844712138E0,1.162284613E0,-7.824265957E-2,3.772272110E0
5.849712138E0,9.994186163E-1,-9.354734421E-2,3.730173111E0
5.854712138E0,8.798840642E-1,-1.081720591E-1,3.539900780E0
5.859712138E0,8.182490468E-1,-1.461076736E-1,3.210281372E0
5.864712138E0,8.226759434E-1,-1.920782328E-1,2.771093369E0
5.869712138E0,8.917169571E-1,-2.355324030E-1,2.252994537E0
5.874712138E0,9.935676455E-1,-2.827696800E-1,1.739000320E0
5.879712138E0,1.050187588E0,-3.473134041E-1,1.254481316E0
5.884712138E0,1.087120295E0,-4.019767046E-1,9.487276077E-1
5.889712138E0,1.123708010E0,-4.621932507E-1,8.397808075E-1
5.894712138E0,1.123977661E0,-5.724563599E-1,8.600349426E-1
5.899712138E0,1.108969688E0,-6.796178818E-1,9.391956329E-1
5.904712138E0,1.083189249E0,-7.800029516E-1,1.074790955E0
5.909712138E0,1.054229617E0,-8.385385275E-1,1.275134087E0
5.914712138E0,1.018982410E0,-8.559292555E-1,1.488727570E0
5.919712138E0,9.847432375E-1,-8.545904756E-1,1.712846756E0
5.924712138E0,9.187682867E-1,-8.374447823E-1,1.864664078E0
5.929712138E0,8.249562383E-1,-8.209823370E-1,1.948801041E0
5.934712138E0,7.618864775E-1,-8.110281229E-1,1.922425270E0
5.939712138E0,6.815975904E-1,-8.046076298E-1,1.832889557E0
5.944712138E0,6.129696965E-1,-8.204910755E-1,1.657345772E0
5.949712138E0,5.421944261E-1,-8.236696720E-1,1.439826012E0
5.954712138E0,4.901739359E-1,-8.034883738E-1,1.158274651E0
5.959712138E0,4.751738310E-1,-7.766946554E-1,8.059530258E-1
5.964712138E0,5.012950301E-1,-7.064877748E-1,4.276475906E-1
5.969712138E0,5.405293107E-1,-6.006819010E-1,7.472419739E-2
5.974712138E0,6.186701059E-1,-4.728417397E-1,-2.773580551E-1
5.979712138E0,7.567408085E-1,-3.416178226E-1,-5.802202225E-1
5.984712138E0,9.052966237E-1,-2.135568857E-1,-7.885189056E-1
5.989712138E0,1.061817169E0,-7.865488529E-2,-9.301376343E-1
5.994712138E0,1.226946354E0,4.628586769E-2,-9.548645020E-1
5.999712138E0,1.358673811E0,1.764696836E-1,-9.293622971E-1
6.004712138E0,1.372287750E0,3.180294037E-1,-8.718948364E-1
6.009712138E0,1.291702747E0,3.848198652E-1,-7.782602310E-1
6.014712138E0,1.141749144E0,4.018586874E-1,-6.913070679E-1
6.019712138E0,9.611954093E-1,3.539144993E-1,-6.098289490E-1
6.024712138E0,7.694774866E-1,2.629544735E-1,-5.755252838E-1
6.029712138E0,5.468210578E-1,1.630096436E-1,-6.405105591E-1
6.034712138E0,3.062621355E-1,5.665183067E-2,-7.542734146E-1
6.039712138E0,1.150236726E-1,-1.362442970E-2,-9.660644531E-1
6.044712138E0,-4.345822334E-2,-7.930219173E-2,-1.213073730E0
6.049712138E0,-2.101835608E-1,-1.009151936E-1,-1.508368492E0
6.054712138E0,-3.298255503E-1,-1.080495119E-1,-1.834655762E0
6.059712138E0,-4.230049551E-1,-9.257316589E-2,-2.164730072E0
6.064712138E0,-4.781257808E-1,-6.103849411E-2,-2.466029167E0
6.069712138E0,-5.250511169E-1,6.825447083E-3,-2.766169548E0
6.074712138E0,-5.640449524E-1,6.633138657E-2,-3.027244568E0
6.079712138E0,-5.759965777E-1,1.413302422E-1,-3.275906563E0
6.084712138E0,-5.851816535E-1,2.078115940E-1,-3.464722633E0
6.089712138E0,-5.850277543E-1,2.716627121E-1,-3.629791737E0
6.094712138E0,-5.843938589E-1,3.420963287E-1,-3.729358673E0
6.099712138E0,-5.959216952E-1,3.921017647E-1,-3.757655144E0
6.104712138E0,-5.946128964E-1,4.292855263E-1,-3.763083458E0
6.109712138E0,-5.741010904E-1,4.633595943E-1,-3.717620373E0
6.114712138E0,-5.415387750E-1,4.935228825E-1,-3.670122147E0
6.119712138E0,-5.113863349E-1,4.949319363E-1,-3.585101128E0
6.124712138E0,-4.745676517E-1,4.828796387E-1,-3.473973274E0
6.129712138E0,-4.395962656E-1,4.817059040E-1,-3.339871883E0
6.134712138E0,-3.797016144E-1,4.722225666E-1,-3.185424805E0
6.139712138E0,-3.236359060E-1,4.766371250E-1,-2.986757278E0
6.144712138E0,-2.788467705E-1,4.881844521E-1,-2.779267311E0
6.149712138E0,-2.296552658E-1,4.944109917E-1,-2.555037498E0
6.154712138E0,-1.909997463E-1,5.215466022E-1,-2.332060814E0
6.159712138E0,-1.655983329E-1,5.385460854E-1,-2.132709503E0
6.164712138E0,-1.482390463E-1,5.525732040E-1,-1.970592976E0
6.169712138E0,-1.303328276E-1,5.356166363E-1,-1.837225914E0
6.174712138E0,-1.241323352E-1,5.029039383E-1,-1.693441391E0
6.179712138E0,-1.208776832E-1,4.583718777E-1,-1.552013874E0
6.184712138E0,-1.465386152E-1,4.157080650E-1,-1.432792664E0
6.189712138E0,-1.662873924E-1,3.569614887E-1,-1.389389038E0
6.194712138E0,-2.203216255E-1,3.166642189E-1,-1.375144958E0
6.199712138E0,-3.248612285E-1,2.665109634E-1,-1.406138420E0
6.204712138E0,-4.515236914E-1,2.304625511E-1,-1.409310341E0
6.209712138E0,-5.885667801E-1,2.152915001E-1,-1.404583931E0
6.214712138E0,-6.766648889E-1,1.750183105E-1,-1.388551712E0
6.219712138E0,-7.654604912E-1,1.162915230E-1,-1.355568886E0
6.224712138E0,-8.422735333E-1,3.642249107E-2,-1.293078423E0
6.229712138E0,-9.142185450E-1,-6.041884422E-2,-1.186534882E0
6.234712138E0,-9.866995215E-1,-1.608066559E-1,-1.027708054E0
6.239712138E0,-1.028051734E0,-2.169917822E-1,-8.421373367E-1
6.244712138E0,-1.032135010E0,-1.964027882E-1,-6.776657104E-1
6.249712138E0,-9.975620508E-1,-1.533801556E-1,-5.289058685E-1
6.254712138E0,-9.701592922E-1,-1.351668835E-1,-4.537982941E-1
6.259712138E0,-9.409877062E-1,-1.065330505E-1,-4.695558548E-1
6.264712138E0,-8.509505987E-1,-1.991987228E-2,-5.343885422E-1
6.269712138E0,-7.435469627E-1,1.361482143E-1,-5.547780991E-1
6.274712138E0,-5.755947828E-1,2.633683681E-1,-5.546197891E-1
6.279712138E0,-3.943228126E-1,3.439867496E-1,-5.153236389E-1
6.284712138E0,-2.143547535E-1,4.548299313E-1,-3.915920258E-1
6.289712138E0,7.246613503E-3,5.974695683E-1,-1.881923676E-1
6.294712138E0,2.272854745E-1,7.152416706E-1,1.402721405E-1
6.299712138E0,4.468399584E-1,7.604181767E-1,4.939994812E-1
6.304712138E0,6.448009610E-1,7.700669765E-1,9.422550201E-1
6.309712138E0,7.577226162E-1,7.167947292E-1,1.473282814E0
6.314712138E0,7.915551662E-1,6.369252205E-1,2.019062996E0
6.319712138E0,7.077131271E-1,5.725581646E-1,2.523261070E0
6.324712138E0,5.311870575E-1,5.504550934E-1,2.877254486E0
6.329712138E0,3.353071511E-1,5.613777637E-1,3.043971062E0
6.334712138E0,1.257687509E-1,5.934648514E-1,2.980734825E0
6.339712138E0,-7.260371745E-2,6.066977978E-1,2.749720573E0
6.344712138E0,-2.192738354E-1,6.030409336E-1,2.392596245E0
6.349712138E0,-3.354440629E-1,6.290647984E-1,1.982864380E0
6.354712138E0,-4.251271486E-1,6.826465130E-1,1.611961365E0
6.359712138E0,-4.782471061E-1,7.502310276E-1,1.364515305E0
6.364712138E0,-5.242394209E-1,8.236408234E-1,1.307175636E0
6.369712138E0,-5.255412459E-1,9.212274551E-1,1.355669022E0
6.374712138E0,-4.579126239E-1,9.980151653E-1,1.436135292E0
6.379712138E0,-3.594339490E-1,1.010894775E0,1.556581497E0
6.384712138E0,-2.937801182E-1,9.476211071E-1,1.723972321E0
6.389712138E0,-2.457120568E-1,8.322663307E-1,1.962651253E0
6.394712138E0,-1.822560132E-1,6.805865765E-1,2.250199318E0
6.399712138E0,-1.172251776E-1,4.996311665E-1,2.550088882E0
6.404712138E0,-1.030740142E-1,3.046858311E-1,2.817952156E0
6.409712138E0,-1.219590977E-1,1.007037163E-1,3.025760651E0
6.414712138E0,-1.983746588E-1,-9.460926056E-2,3.166869164E0
6.419712138E0,-3.092823625E-1,-2.809286118E-1,3.242188454E0
6.424712138E0,-4.541301131E-1,-4.395835400E-1,3.242853165E0
6.429712138E0,-5.836554766E-1,-5.424933434E-1,3.143995285E0
6.434712138E0,-7.183265686E-1,-5.925233364E-1,2.963525772E0
6.439712138E0,-8.084935546E-1,-6.042544842E-1,2.662783623E0
6.444712138E0,-8.730775714E-1,-5.580103397E-1,2.310673714E0
6.449712138E0,-9.199549556E-1,-4.721093178E-1,1.946044922E0
6.454712138E0,-9.218624830E-1,-3.512828350E-1,1.558484077E0
6.459712138E0,-8.686917424E-1,-2.120208740E-1,1.146418571E0
6.464712138E0,-7.328414917E-1,-5.206656456E-2,7.309942245E-1
6.469712138E0,-5.389850736E-1,6.272387505E-2,3.924207687E-1
6.474712138E0,-3.180882931E-1,1.579439640E-1,1.884202957E-1
6.479712138E0,-4.566907883E-2,2.064087391E-1,1.611986160E-1
6.484712138E0,2.331526577E-1,2.308883667E-1,3.614454269E-1
6.489712138E0,4.769479036E-1,2.010216713E-1,8.264312744E-1
6.494712138E0,6.274613738E-1,1.254658699E-1,1.416809082E0
6.499712138E0,6.872013807E-1,9.705305099E-3,2.055600166E0
6.504712138E0,6.963294744E-1,-2.012510300E-1,2.629796982E0
6.509712138E0,6.507598758E-1,-4.706740379E-1,3.071578026E0
6.514712138E0,5.593996644E-1,-7.778372765E-1,3.314489365E0
6.519712138E0,4.117635489E-1,-1.073460817E0,3.380777359E0
6.524712138E0,2.860848308E-1,-1.320674658E0,3.222055435E0
6.529712138E0,1.354870796E-1,-1.459713221E0,2.921535492E0
6.534712138E0,4.199980199E-2,-1.515840769E0,2.502443314E0
6.539712138E0,7.719172537E-2,-1.503413320E0,1.993335724E0
6.544712138E0,2.765626609E-1,-1.414338946E0,1.487379074E0
6.549712138E0,5.228691697E-1,-1.234743714E0,9.724884033E-1
6.554712138E0,7.934179902E-1,-1.026966453E0,4.619026184E-1
6.559712138E0,9.529737830E-1,-8.297219276E-1,-6.800174713E-2
6.564712138E0,1.050246000E0,-6.758426428E-1,-6.608047485E-1
6.569712138E0,1.111607790E0,-5.510189533E-1,-1.148437500E0
6.574712138E0,1.055149674E0,-4.970115423E-1,-1.522578239E0
6.579712138E0,9.522799850E-1,-5.055594444E-1,-1.774993896E0
6.584712138E0,8.660726547E-1,-5.506457090E-1,-1.802526474E0
6.589712138E0,7.514416575E-1,-6.033141613E-1,-1.707030296E0
6.594712138E0,6.294245720E-1,-6.498925686E-1,-1.545373917E0
6.599712138E0,4.897485971E-1,-7.301639318E-1,-1.350058556E0
6.604712138E0,3.602636456E-1,-8.505101204E-1,-1.123889923E0
6.609712138E0,2.405480444E-1,-9.459321499E-1,-9.042444229E-1
6.614712138E0,1.387042999E-1,-1.002374887E0,-7.413225174E-1
6.619712138E0,6.152057648E-2,-1.033457994E0,-6.338834763E-1
6.624712138E0,-8.362762630E-3,-1.007565260E0,-6.116437912E-1
6.629712138E0,-5.115731433E-2,-9.535877705E-1,-6.438980103E-1
6.634712138E0,-2.935630828E-2,-8.765003681E-1,-6.999549866E-1
6.639712138E0,1.450494677E-2,-8.061379194E-1,-8.325576782E-1
6.644712138E0,1.251157373E-2,-7.333414555E-1,-1.045823097E0
6.649712138E0,-1.375272870E-3,-6.723144054E-1,-1.327316284E0
6.654712138E0,5.192352831E-2,-6.309657097E-1,-1.643781662E0
6.659712138E0,1.227742285E-1,-5.445737839E-1,-1.991866112E0
6.664712138E0,1.582316756E-1,-4.263210297E-1,-2.308467388E0
6.669712138E0,2.109534740E-1,-2.874200344E-1,-2.589779854E0
6.674712138E0,2.622557282E-1,-1.781063080E-1,-2.808474064E0
6.679712138E0,2.652170062E-1,-6.054449081E-2,-2.978740692E0
6.684712138E0,2.334941775E-1,-1.613140106E-3,-3.152639389E0
6.689712138E0,2.123173177E-1,4.294824600E-2,-3.277259827E0
6.694712138E0,1.902556866E-1,5.225539207E-2,-3.320861816E0
6.699712138E0,1.917787790E-1,6.043672562E-2,-3.346721172E0
6.704712138E0,1.972786486E-1,6.500244141E-2,-3.333058357E0
6.709712138E0,2.264306694E-1,9.147024155E-2,-3.257665634E0
6.714712138E0,2.537315488E-1,1.311058998E-1,-3.091256618E0
6.719712138E0,2.644180655E-1,1.450209618E-1,-2.864405155E0
6.724712138E0,2.966834009E-1,1.446480751E-1,-2.647029877E0
6.729712138E0,3.215243816E-1,1.451182365E-1,-2.447986603E0
6.734712138E0,3.383105099E-1,1.266858578E-1,-2.287306786E0
6.739712138E0,3.423111439E-1,1.254038811E-1,-2.113604546E0
6.744712138E0,3.299738169E-1,1.327521801E-1,-1.953428268E0
6.749712138E0,3.153534830E-1,1.525347233E-1,-1.748564720E0
6.754712138E0,3.221348524E-1,1.748216152E-1,-1.576705933E0
6.759712138E0,3.252055049E-1,2.033920288E-1,-1.450910568E0
6.764712138E0,2.695000768E-1,2.246460915E-1,-1.316539764E0
6.769712138E0,1.731469333E-1,2.238345146E-1,-1.201828957E0
6.774712138E0,3.763145208E-2,1.908524036E-1,-1.136662483E0
6.779712138E0,-8.517870307E-2,1.566495895E-1,-1.072879791E0
6.784712138E0,-1.881509870E-1,1.214108467E-1,-1.050789833E0
6.789712138E0,-3.064756393E-1,1.125824451E-1,-1.013938904E0
6.794712138E0,-3.418091834E-1,1.154212952E-1,-9.740705490E-1
6.799712138E0,-3.076505661E-1,1.335945129E-1,-9.250183105E-1
6.804712138E0,-2.831058800E-1,1.896355152E-1,-8.854227066E-1
6.809712138E0,-2.293267250E-1,2.484128475E-1,-7.804431915E-1
6.814712138E0,-1.458299160E-1,3.052167892E-1,-6.403818130E-1
6.819712138E0,-7.865464687E-2,3.246209621E-1,-4.489812851E-1
6.824712138E0,-5.327960849E-2,3.131811619E-1,-2.114181519E-1
6.829712138E0,-1.783162355E-2,2.529702187E-1,8.220577240E-2
6.834712138E0,1.520246267E-2,1.670181751E-1,4.361743927E-1
6.839712138E0,7.558685541E-2,5.571365356E-2,7.741775513E-1
6.844712138E0,1.017009914E-1,-5.468106270E-2,1.144114494E0
6.849712138E0,1.170784831E-1,-1.756868362E-1,1.476788521E0
6.854712138E0,1.303074956E-1,-2.942023277E-1,1.790606499E0
6.859712138E0,1.288246512E-1,-3.933758736E-1,2.034912109E0
6.864712138E0,1.041029096E-1,-4.930546284E-1,2.232192039E0
6.869712138E0,8.430981636E-2,-5.753269196E-1,2.350037575E0
6.874712138E0,5.545291305E-2,-6.356916428E-1,2.363245964E0
6.879712138E0,1.181823015E-2,-6.698548794E-1,2.300938606E0
6.884712138E0,-1.287996769E-3,-6.796998978E-1,2.126240730E0
6.889712138E0,-3.209921718E-2,-6.517772675E-1,1.889245987E0
6.894712138E0,-8.327507973E-2,-5.588929653E-1,1.593478203E0
6.899712138E0,-1.207206249E-1,-4.098585844E-1,1.267581940E0
6.904712138E0,-8.659240603E-2,-2.137068510E-1,9.399366379E-1
6.909712138E0,-1.863098145E-2,-2.478504181E-2,6.574020386E-1
6.914712138E0,6.967335939E-2,1.244535446E-1,4.181966782E-1
6.919712138E0,1.480523944E-1,2.309517860E-1,2.479248047E-1
6.924712138E0,2.147945166E-1,2.900009155E-1,1.512689590E-1
6.929712138E0,2.856246233E-1,2.800245285E-1,2.099657059E-1
6.934712138E0,3.376387954E-1,2.166278362E-1,4.405412674E-1
6.939712138E0,3.870991468E-1,1.442002058E-1,8.626880646E-1
6.944712138E0,4.552119374E-1,6.427776814E-2,1.409486771E0
6.949712138E0,5.303066969E-1,-4.715561867E-2,1.999712944E0
6.954712138E0,6.003664732E-1,-1.479212046E-1,2.557613373E0
6.959712138E0,6.703986526E-1,-2.723560333E-1,3.090185165E0
6.964712138E0,7.145990133E-1,-3.856915236E-1,3.593192101E0
6.969712138E0,6.955958009E-1,-4.692410231E-1,4.037737846E0
6.974712138E0,6.326600313E-1,-5.746428967E-1,4.432126045E0
6.979712138E0,5.861061215E-1,-6.805754900E-1,4.734929085E0
6.984712138E0,5.057095885E-1,-7.294975519E-1,4.887205124E0
6.989712138E0,3.617296815E-1,-7.122139931E-1,4.824388504E0
6.994712138E0,1.846569180E-1,-6.581493616E-1,4.571681976E0
6.999712138E0,1.126384735E-2,-6.167378426E-1,4.157089233E0
7.004712138E0,-1.249821186E-1,-5.595642328E-1,3.604562759E0
7.009712138E0,-1.831074655E-1,-5.344037414E-1,2.938748360E0
7.014712138E0,-1.598502994E-1,-5.227768421E-1,2.284619331E0
7.019712138E0,-9.165501595E-2,-4.878466129E-1,1.561502457E0
7.024712138E0,-4.575252533E-4,-4.160912037E-1,8.300180435E-1
7.029712138E0,9.039139748E-2,-3.174650669E-1,2.224721909E-1
7.034712138E0,1.946547627E-1,-2.172473669E-1,-2.474842072E-1
7.039712138E0,3.249235153E-1,-1.440490484E-1,-5.856399536E-1
7.044712138E0,4.969156981E-1,-1.164300442E-1,-7.931241989E-1
7.049712138E0,6.245144010E-1,-1.119468212E-1,-8.558168411E-1
7.054712138E0,7.453731894E-1,-1.706423759E-1,-7.783641815E-1
7.059712138E0,8.710527420E-1,-2.599204779E-1,-5.227804184E-1
7.064712138E0,9.923797250E-1,-3.458752632E-1,-2.191648483E-1
7.069712138E0,1.109509468E0,-4.134809971E-1,6.339645386E-2
7.074712138E0,1.178034902E0,-4.706388712E-1,3.085451126E-1
7.079712138E0,1.220495462E0,-5.557817221E-1,5.431041718E-1
7.084712138E0,1.235114813E0,-6.411400437E-1,8.015489578E-1
7.089712138E0,1.224140406E0,-7.129626274E-1,1.017216682E0
7.094712138E0,1.214618325E0,-7.428511977E-1,1.173509598E0
7.099712138E0,1.191742420E0,-7.494326830E-1,1.276042938E0
7.104712138E0,1.163849831E0,-7.213435173E-1,1.274251938E0
7.109712138E0,1.146124840E0,-6.707621813E-1,1.205584526E0
7.114712138E0,1.142009735E0,-5.866434574E-1,1.037487984E0
7.119712138E0,1.126962662E0,-4.945037365E-1,8.104009628E-1
7.124712138E0,1.088885784E0,-4.111676216E-1,5.261306763E-1
7.129712138E0,1.035826921E0,-3.261638880E-1,1.760940552E-1
7.134712138E0,9.544779062E-1,-2.696940899E-1,-1.586360931E-1
7.139712138E0,8.628972769E-1,-2.365299463E-1,-5.093078613E-1
7.144712138E0,7.503225207E-1,-2.252930403E-1,-8.696413040E-1
7.149712138E0,6.447470784E-1,-2.299650908E-1,-1.218317986E0
7.154712138E0,5.314819217E-1,-2.256592512E-1,-1.539608002E0
7.159712138E0,3.899651170E-1,-2.365634441E-1,-1.808310509E0
7.164712138E0,2.688304782E-1,-2.681735754E-1,-2.025763512E0
7.169712138E0,1.426111460E-1,-2.976253033E-1,-2.205978394E0
7.174712138E0,4.347509146E-2,-3.397086859E-1,-2.358722687E0
7.179712138E0,-8.338320255E-2,-3.884650469E-1,-2.532641411E0
7.184712138E0,-2.065358460E-1,-4.437741041E-1,-2.646530151E0
7.189712138E0,-3.316829801E-1,-5.050760508E-1,-2.731725693E0
7.194712138E0,-4.259322882E-1,-5.715429783E-1,-2.772686958E0
7.199712138E0,-4.906870723E-1,-6.347360611E-1,-2.832768917E0
7.204712138E0,-5.761485100E-1,-6.908987761E-1,-2.872717857E0
7.209712138E0,-6.614005566E-1,-7.130000591E-1,-2.893958569E0
7.214712138E0,-7.163063288E-1,-7.315777540E-1,-2.920472145E0
7.219712138E0,-7.647817135E-1,-7.398068905E-1,-2.941782951E0
7.224712138E0,-8.086525202E-1,-7.295742035E-1,-2.983405590E0
7.229712138E0,-8.393030167E-1,-7.139232159E-1,-3.018264771E0
7.234712138E0,-8.630820513E-1,-7.078078985E-1,-3.055654526E0
7.239712138E0,-9.149942398E-1,-7.276611328E-1,-3.112022400E0
7.244712138E0,-9.519320726E-1,-7.506070137E-1,-3.152507782E0
7.249712138E0,-9.819180965E-1,-7.539225817E-1,-3.189331055E0
7.254712138E0,-9.868539572E-1,-7.264572382E-1,-3.229347229E0
7.259712138E0,-9.691234827E-1,-6.815985441E-1,-3.246285439E0
7.264712138E0,-9.286744595E-1,-6.133525372E-1,-3.256956100E0
7.269712138E0,-8.387824297E-1,-5.203483105E-1,-3.265262604E0
7.274712138E0,-7.768408060E-1,-3.761634827E-1,-3.256202698E0
7.279712138E0,-6.757932901E-1,-2.505789995E-1,-3.206651211E0
7.284712138E0,-5.698794127E-1,-1.209100485E-1,-3.089831352E0
7.289712138E0,-4.371049404E-1,-1.202797890E-2,-2.969114780E0
7.294712138E0,-3.355183601E-1,1.138558388E-1,-2.784782887E0
7.299712138E0,-2.435239553E-1,2.267553806E-1,-2.584313393E0
7.304712138E0,-2.017194629E-1,2.901085615E-1,-2.389575958E0
7.309712138E0,-2.211326212E-1,2.862594128E-1,-2.211174011E0
7.314712138E0,-2.617880702E-1,2.180066109E-1,-2.035748482E0
7.319712138E0,-2.772280276E-1,1.105035543E-1,-1.865180016E0
7.324712138E0,-2.972139120E-1,-7.475137711E-3,-1.716822624E0
7.329712138E0,-3.049680591E-1,-9.345257282E-2,-1.574044228E0
7.334712138E0,-3.671234548E-1,-1.394284964E-1,-1.450754166E0
7.339712138E0,-4.642457366E-1,-2.040575743E-1,-1.338204384E0
7.344712138E0,-5.587575436E-1,-2.579692602E-1,-1.218400002E0
7.349712138E0,-6.433309913E-1,-2.896883488E-1,-1.094881058E0
7.354712138E0,-6.759318709E-1,-3.178673983E-1,-1.037325859E0
7.359712138E0,-6.970896721E-1,-2.686032057E-1,-9.723558426E-1
7.364712138E0,-7.261649966E-1,-1.601095200E-1,-9.515876770E-1
7.369712138E0,-7.474939823E-1,1.829195023E-2,-9.676961899E-1
7.374712138E0,-7.394045591E-1,1.964380741E-1,-1.006348610E0
7.379712138E0,-7.369714975E-1,3.645007610E-1,-1.086265564E0
7.384712138E0,-6.980224848E-1,5.220869780E-1,-1.129764557E0
7.389712138E0,-6.091700792E-1,6.842203140E-1,-1.173100471E0
7.394712138E0,-4.898286760E-1,8.327875137E-1,-1.200057030E0
7.399712138E0,-3.676192760E-1,9.821066856E-1,-1.202341080E0
7.404712138E0,-2.656600177E-1,1.128885627E0,-1.191245079E0
7.409712138E0,-1.854767799E-1,1.253169775E0,-1.128729820E0
7.414712138E0,-8.969584107E-2,1.372220874E0,-1.001346588E0
7.419712138E0,4.089868069E-2,1.480532289E0,-8.548889160E-1
7.424712138E0,1.724314988E-1,1.587772131E0,-6.383562088E-1
7.429712138E0,2.790222168E-1,1.624253273E0,-3.944101334E-1
7.434712138E0,3.600036204E-1,1.591576338E0,-1.747894287E-2
7.439712138E0,4.467927814E-1,1.475577116E0,4.470720291E-1
7.444712138E0,5.435546637E-1,1.312812209E0,9.661254883E-1
7.449712138E0,6.000841856E-1,1.129646301E0,1.496201515E0
7.454712138E0,6.216736436E-1,9.785035849E-1,2.000695229E0
7.459712138E0,5.864249468E-1,8.689860106E-1,2.472889900E0
7.464712138E0,5.603228211E-1,8.497600555E-1,2.890797615E0
7.469712138E0,5.584521294E-1,8.905420303E-1,3.211758614E0
7.474712138E0,5.527974367E-1,9.373880625E-1,3.418510437E0
7.479712138E0,5.829330683E-1,9.866530895E-1,3.432580948E0
7.484712138E0,6.724925637E-1,1.029715538E0,3.333016396E0
7.489712138E0,8.369554281E-1,1.089656949E0,3.200650215E0
7.494712138E0,9.940453768E-1,1.178872228E0,3.054249763E0
7.499712138E0,1.028409362E0,1.309756398E0,2.976399422E0
7.504712138E0,9.865010977E-1,1.422117829E0,3.021143913E0
7.509712138E0,1.019778967E0,1.512951374E0,3.170772552E0
7.514712138E0,1.078327179E0,1.478689313E0,3.459311485E0
7.519712138E0,1.100334287E0,1.320839524E0,3.866518021E0
7.524712138E0,1.109136105E0,9.951683283E-1,4.392677307E0
7.529712138E0,1.079903126E0,5.523660183E-1,5.007040024E0
7.534712138E0,9.217636585E-1,5.163371563E-2,5.652168274E0
7.539712138E0,6.931469440E-1,-4.426928759E-1,6.298526764E0
7.544712138E0,4.223156571E-1,-8.975970745E-1,6.881832123E0
7.549712138E0,6.750640273E-2,-1.265561819E0,7.285404205E0
7.554712138E0,-2.986594737E-1,-1.525405765E0,7.453666687E0
7.559712138E0,-5.824573040E-1,-1.696449280E0,7.352164268E0
7.564712138E0,-7.592887282E-1,-1.727863789E0,6.877644539E0
7.569712138E0,-8.376542926E-1,-1.647849917E0,6.055852890E0
7.574712138E0,-8.387821913E-1,-1.473730564E0,5.034524918E0
7.579712138E0,-6.972934604E-1,-1.236084104E0,3.957245827E0
7.584712138E0,-4.815498590E-1,-9.553252459E-1,2.929902077E0
7.589712138E0,-2.612465918E-1,-6.956418753E-1,2.024373055E0
7.594712138E0,-3.668491542E-2,-4.365926981E-1,1.286450386E0
7.599712138E0,1.543105096E-1,-2.055830956E-1,6.702747345E-1
7.604712138E0,3.136143684E-1,-2.416455746E-2,1.794595718E-1
7.609712138E0,4.179841280E-1,8.920538425E-2,-1.119651794E-1
7.614712138E0,4.901739657E-1,1.326479912E-1,-2.314004898E-1
7.619712138E0,4.889323711E-1,9.611356258E-2,-1.763496399E-1
7.624712138E0,4.546797872E-1,-1.454985142E-2,-5.664825439E-4
7.629712138E0,4.196363688E-1,-1.734981537E-1,2.602033615E-1
7.634712138E0,3.882468641E-1,-3.490940332E-1,5.217189789E-1
7.639712138E0,3.109844923E-1,-5.328038931E-1,7.265024185E-1
7.644712138E0,2.376977652E-1,-6.960040331E-1,8.729925156E-1
7.649712138E0,1.815568656E-1,-8.351286650E-1,9.522171021E-1
7.654712138E0,1.392715722E-1,-9.417735338E-1,9.279422760E-1
7.659712138E0,1.177327186E-1,-1.012916684E0,8.254756927E-1
7.664712138E0,1.004263610E-1,-1.042502642E0,6.552295685E-1
7.669712138E0,8.743001521E-2,-1.043222904E0,3.874568939E-1
7.674712138E0,7.466413081E-2,-1.001265526E0,8.874893188E-2
7.679712138E0,5.476279557E-2,-9.613275528E-1,-2.124862671E-1
7.684712138E0,5.306459963E-2,-9.058449268E-1,-4.914007187E-1
7.689712138E0,1.477152109E-4,-8.425252438E-1,-7.715930939E-1
7.694712138E0,-3.421740234E-2,-8.037269115E-1,-1.051374435E0
7.699712138E0,-8.962698281E-2,-7.713298798E-1,-1.323018074E0
7.704712138E0,-1.764424145E-1,-7.403208017E-1,-1.575524330E0
7.709712138E0,-2.616134882E-1,-6.966636181E-1,-1.836127281E0
7.714712138E0,-3.483133316E-1,-6.606395245E-1,-2.096191406E0
7.719712138E0,-4.327674210E-1,-6.400988102E-1,-2.387334824E0
7.724712138E0,-5.781212449E-1,-6.083709002E-1,-2.672260284E0
7.729712138E0,-6.847187281E-1,-5.847963095E-1,-2.942455292E0
7.734712138E0,-7.487347126E-1,-5.992994308E-1,-3.190001488E0
7.739712138E0,-8.172443509E-1,-6.183165312E-1,-3.410310745E0
7.744712138E0,-9.127528667E-1,-6.255295277E-1,-3.637029648E0
7.749712138E0,-9.935143590E-1,-6.510280371E-1,-3.791852951E0
7.754712138E0,-1.131052017E0,-6.870502234E-1,-3.924987793E0
7.759712138E0,-1.316369295E0,-7.461795807E-1,-4.007065773E0
7.764712138E0,-1.502507806E0,-8.345619440E-1,-4.079666138E0
7.769712138E0,-1.702051401E0,-9.592162967E-1,-4.132755280E0
7.774712138E0,-1.835206270E0,-1.123180389E0,-4.215624332E0
7.779712138E0,-1.952405691E0,-1.253027678E0,-4.247140408E0
7.784712138E0,-1.994980097E0,-1.311527491E0,-4.235697269E0
7.789712138E0,-1.864966869E0,-1.337145567E0,-4.205842018E0
7.794712138E0,-1.550536633E0,-1.228438497E0,-4.096135139E0
7.799712138E0,-1.123016357E0,-1.040583730E0,-3.936951637E0
7.804712138E0,-6.393375993E-1,-7.108905315E-1,-3.787312508E0
7.809712138E0,-1.991184801E-1,-2.777756453E-1,-3.662287712E0
7.814712138E0,2.238879949E-1,2.063989639E-1,-3.557748795E0
7.819712138E0,5.763857961E-1,6.627496481E-1,-3.394274712E0
7.824712138E0,8.049831986E-1,1.005605936E0,-3.204552650E0
7.829712138E0,9.069895744E-1,1.206809163E0,-2.944187164E0
7.834712138E0,9.087826014E-1,1.262226462E0,-2.641887665E0
7.839712138E0,8.437426686E-1,1.236417770E0,-2.349643707E0
7.844712138E0,6.967869401E-1,1.077582121E0,-2.058609009E0
7.849712138E0,4.862668216E-1,8.442045450E-1,-1.787543297E0
7.854712138E0,2.005283237E-1,5.819051266E-1,-1.514950752E0
7.859712138E0,-1.403877139E-1,3.022518158E-1,-1.264957428E0
7.864712138E0,-4.753248394E-1,3.473556042E-2,-1.020141602E0
7.869712138E0,-7.476841211E-1,-1.807467937E-1,-8.173217773E-1
7.874712138E0,-9.639115930E-1,-3.205316067E-1,-6.416501999E-1
7.879712138E0,-1.093333364E0,-4.139398336E-1,-5.438976288E-1
7.884712138E0,-1.156407952E0,-4.729154110E-1,-4.791746140E-1
7.889712138E0,-1.153309584E0,-4.957817793E-1,-4.550466537E-1
7.894712138E0,-1.104038119E0,-4.615254402E-1,-4.288730621E-1
7.899712138E0,-9.901690483E-1,-3.670083284E-1,-3.529224396E-1
7.904712138E0,-8.316789865E-1,-2.272695303E-1,-2.417354584E-1
7.909712138E0,-6.676669717E-1,-3.679466248E-2,-9.075355530E-2
7.914712138E0,-5.352548957E-1,1.857805252E-1,2.155780792E-2
7.919712138E0,-4.452090561E-1,3.510602713E-1,6.753349304E-2
7.924712138E0,-4.230154157E-1,4.632217884E-1,4.893398285E-2
7.929712138E0,-4.503140450E-1,5.103517771E-1,1.648139954E-2
7.934712138E0,-5.204433799E-1,4.985940456E-1,-2.683162689E-2
7.939712138E0,-5.890490413E-1,4.781537056E-1,-6.347274780E-2
7.944712138E0,-7.054728270E-1,4.406626225E-1,-8.460807800E-2
7.949712138E0,-8.280887008E-1,3.865522146E-1,-1.114845276E-1
7.954712138E0,-9.544419050E-1,3.094809055E-1,-1.487846375E-1
7.959712138E0,-1.075358391E0,2.135279179E-1,-1.662673950E-1
7.964712138E0,-1.171819091E0,1.239582300E-1,-1.363925934E-1
7.969712138E0,-1.230049133E0,4.543793201E-2,-7.888221741E-2
7.974712138E0,-1.240493894E0,-1.333415508E-2,4.889011383E-2
7.979712138E0,-1.165313244E0,-4.902887344E-2,1.961641312E-1
7.984712138E0,-1.052211404E0,-4.204916954E-2,3.816156387E-1
7.989712138E0,-9.001528621E-1,-2.842700481E-2,5.717430115E-1
7.994712138E0,-6.922897100E-1,-2.902042866E-2,7.771406174E-1
7.999712138E0,-4.648368359E-1,-3.729891777E-2,1.002176285E0
8.004712138E0,-2.556512952E-1,-9.170699120E-2,1.248719215E0
8.009712138E0,-6.339031458E-2,-1.684433222E-1,1.515284538E0
8.014712138E0,8.991155028E-2,-2.796760798E-1,1.783184052E0
8.019712138E0,2.076504230E-1,-4.324753284E-1,2.048803329E0
8.024712138E0,2.970494032E-1,-6.019369364E-1,2.317288399E0
8.029712138E0,3.124840856E-1,-7.427265644E-1,2.497786522E0
8.034712138E0,2.851954699E-1,-8.202067614E-1,2.634875298E0
8.039712138E0,2.563132644E-1,-8.402384520E-1,2.634131432E0
8.044712138E0,2.516428828E-1,-8.023536205E-1,2.491331100E0
8.049712138E0,2.471034527E-1,-7.623768449E-1,2.252018929E0
8.054712138E0,2.325949073E-1,-6.942740679E-1,1.970227242E0
8.059712138E0,2.582688332E-1,-6.106281281E-1,1.722033501E0
8.064712138E0,2.765906453E-1,-5.281740427E-1,1.581084251E0
8.069712138E0,3.318102956E-1,-4.117858410E-1,1.581099510E0
8.074712138E0,4.622269869E-1,-2.854509354E-1,1.747788429E0
8.079712138E0,6.030285954E-1,-1.859124899E-1,2.003605843E0
8.084712138E0,7.005519867E-1,-1.180205345E-1,2.328724861E0
8.089712138E0,7.360067368E-1,-1.424125433E-1,2.646905899E0
8.094712138E0,7.199304104E-1,-2.414811850E-1,2.911015511E0
8.099712138E0,6.869314909E-1,-3.875834942E-1,3.125404358E0
8.104712138E0,6.381661296E-1,-5.489287376E-1,3.357265472E0
8.109712138E0,5.720224380E-1,-7.028679848E-1,3.528867722E0
8.114712138E0,4.391940236E-1,-8.121577501E-1,3.710072517E0
8.119712138E0,3.323976398E-1,-8.366193771E-1,3.870497704E0
8.124712138E0,2.787821889E-1,-8.337758780E-1,3.964145660E0
8.129712138E0,2.372650504E-1,-8.042736053E-1,3.952976227E0
8.134712138E0,2.174336314E-1,-7.818585038E-1,3.815943718E0
8.139712138E0,2.351347208E-1,-7.322888970E-1,3.543875694E0
8.144712138E0,2.846338153E-1,-6.425657272E-1,3.150063515E0
8.149712138E0,3.514364958E-1,-4.961559176E-1,2.677903175E0
8.154712138E0,4.498428702E-1,-3.359283209E-1,2.138537407E0
8.159712138E0,5.896655321E-1,-1.693851948E-1,1.576617241E0
8.164712138E0,7.226894498E-1,-4.051828384E-2,1.017836571E0
8.169712138E0,8.764828444E-1,3.601336479E-2,4.798030853E-1
8.174712138E0,1.030019164E0,5.692601204E-2,-1.698589325E-2
8.179712138E0,1.168094158E0,3.853917122E-2,-3.992547989E-1
8.184712138E0,1.243593216E0,-1.209914684E-2,-6.348724365E-1
8.189712138E0,1.277251363E0,-7.044827938E-2,-7.101058960E-1
8.194712138E0,1.265291214E0,-1.289298534E-1,-5.875568390E-1
8.199712138E0,1.222467899E0,-2.081985474E-1,-3.039197922E-1
8.204712138E0,1.180840492E0,-3.451857567E-1,9.039115906E-2
8.209712138E0,1.105771303E0,-4.763947129E-1,5.348854065E-1
8.214712138E0,1.050404787E0,-6.485005021E-1,8.825931549E-1
8.219712138E0,9.839456677E-1,-7.958278656E-1,1.137363434E0
8.224712138E0,9.029731750E-1,-9.128766060E-1,1.286101341E0
8.229712138E0,8.452832699E-1,-9.931588769E-1,1.369364738E0
8.234712138E0,8.080131412E-1,-1.002686501E0,1.382220268E0
8.239712138E0,7.926079035E-1,-9.655481577E-1,1.322608948E0
8.244712138E0,7.962449789E-1,-8.787491322E-1,1.164055824E0
8.249712138E0,7.964343429E-1,-7.604474425E-1,9.287481308E-1
8.254712138E0,8.486995101E-1,-6.310117245E-1,6.338338852E-1
8.259712138E0,9.064086676E-1,-4.734296799E-1,2.808017731E-1
8.264712138E0,9.735910296E-1,-3.034205437E-1,-8.607006073E-2
8.269712138E0,1.039099216E0,-1.336555481E-1,-4.181909561E-1
8.274712138E0,1.102005839E0,1.207375526E-2,-7.424478531E-1
8.279712138E0,1.110702515E0,1.316015720E-1,-1.052712440E0
8.284712138E0,1.093521595E0,2.285327911E-1,-1.361660957E0
8.289712138E0,1.025418401E0,2.766443491E-1,-1.666333199E0
8.294712138E0,9.466212988E-1,2.814769745E-1,-1.981701851E0
8.299712138E0,8.430336118E-1,2.603459358E-1,-2.279371262E0
8.304712138E0,7.098948956E-1,2.247296572E-1,-2.532814026E0
8.309712138E0,5.728176832E-1,1.843727827E-1,-2.727744102E0
8.314712138E0,4.266951680E-1,1.242359877E-1,-2.903259277E0
8.319712138E0,2.974584699E-1,7.886636257E-2,-3.035159111E0
8.324712138E0,1.621608138E-1,1.815402508E-2,-3.142574787E0
8.329712138E0,5.929279327E-2,-4.092776775E-2,-3.235625267E0
8.334712138E0,-4.359543324E-3,-1.081129313E-1,-3.285634041E0
8.339712138E0,-7.594504952E-2,-1.577738523E-1,-3.318087578E0
8.344712138E0,-1.318935454E-1,-1.584246159E-1,-3.359942436E0
8.349712138E0,-1.575051695E-1,-1.343122721E-1,-3.395432472E0
8.354712138E0,-1.332699955E-1,-8.575761318E-2,-3.423457146E0
8.359712138E0,-9.808310866E-2,-3.916931152E-2,-3.462881088E0
8.364712138E0,-4.178380966E-2,3.046274185E-3,-3.476218224E0
8.369712138E0,2.239987254E-2,6.175792217E-2,-3.472414970E0
8.374712138E0,8.945143223E-2,1.148086786E-1,-3.460271835E0
8.379712138E0,1.773151755E-1,2.020998001E-1,-3.426482201E0
8.384712138E0,2.723134458E-1,2.758647203E-1,-3.389374733E0
8.389712138E0,3.706967831E-1,3.528314829E-1,-3.303384781E0
8.394712138E0,4.608046710E-1,4.277317524E-1,-3.203199387E0
8.399712138E0,5.597020388E-1,4.947911501E-1,-3.072636604E0
8.404712138E0,6.417832971E-1,5.772174597E-1,-2.953764915E0
8.409712138E0,7.078573704E-1,6.490492821E-1,-2.753697395E0
8.414712138E0,7.466768026E-1,7.064317465E-1,-2.572175980E0
8.419712138E0,7.286205292E-1,7.383869886E-1,-2.415992737E0
8.424712138E0,7.144937515E-1,7.353945971E-1,-2.266666889E0
8.429712138E0,6.831666231E-1,7.178432941E-1,-2.095202446E0
8.434712138E0,6.632092595E-1,6.550859213E-1,-1.918236732E0
8.439712138E0,6.132544279E-1,5.676072836E-1,-1.761982918E0
8.444712138E0,5.086868405E-1,4.787923098E-1,-1.596552849E0
8.449712138E0,4.079690576E-1,3.851277828E-1,-1.436048508E0
8.454712138E0,3.022734523E-1,3.281476498E-1,-1.262651443E0
8.459712138E0,1.924614608E-1,2.547241449E-1,-1.159508705E0
8.464712138E0,1.164042503E-1,2.065393925E-1,-1.130152702E0
8.469712138E0,7.181480527E-3,1.871427298E-1,-1.015580177E0
8.474712138E0,-8.195602894E-2,1.861990690E-1,-8.699417114E-1
8.479712138E0,-1.491799057E-1,1.986231804E-1,-7.222318649E-1
8.484712138E0,-2.569360435E-1,3.360537291E-1,-5.684099197E-1
8.489712138E0,-2.579386830E-1,5.076333284E-1,-5.136537552E-1
8.494712138E0,-2.444130778E-1,6.752113104E-1,-4.682321548E-1
8.499712138E0,-2.147538066E-1,8.310488462E-1,-4.505500793E-1
8.504712138E0,-1.450318396E-1,9.829628468E-1,-4.695510864E-1
8.509712138E0,-5.272348225E-2,1.191737652E0,-5.081863403E-1
8.514712138E0,5.914790556E-2,1.410629392E0,-5.394430161E-1
8.519712138E0,1.956781000E-1,1.616128922E0,-6.063623428E-1
8.524712138E0,3.406232297E-1,1.793562531E0,-6.582021713E-1
8.529712138E0,5.175726414E-1,1.965582728E0,-7.045822144E-1
8.534712138E0,6.937494874E-1,2.097050667E0,-7.190866470E-1
8.539712138E0,8.199747205E-1,2.192708731E0,-6.834220886E-1
8.544712138E0,9.242691994E-1,2.239890575E0,-5.528249741E-1
8.549712138E0,9.780089259E-1,2.230833530E0,-3.356828690E-1
8.554712138E0,9.810139537E-1,2.106902361E0,-1.816082001E-2
8.559712138E0,9.568706155E-1,1.883471370E0,4.009561539E-1
8.564712138E0,8.566091657E-1,1.576454282E0,8.864049911E-1
8.569712138E0,6.651064157E-1,1.203319550E0,1.448956490E0
8.574712138E0,4.332571030E-1,8.135118484E-1,2.115496635E0
8.579712138E0,2.080539763E-1,4.029682875E-1,2.814276695E0
8.584712138E0,-8.717454970E-3,1.821005344E-2,3.496780396E0
8.589712138E0,-2.528246641E-1,-2.919356823E-1,4.091324806E0
8.594712138E0,-5.009810328E-1,-5.273741484E-1,4.532312393E0
8.599712138E0,-6.654306650E-1,-6.401820183E-1,4.799267769E0
8.604712138E0,-7.356240749E-1,-6.958775520E-1,4.903392792E0
8.609712138E0,-6.933926344E-1,-6.627502441E-1,4.791208267E0
8.614712138E0,-5.686077476E-1,-5.717298388E-1,4.538491249E0
8.619712138E0,-4.421146512E-1,-4.260873795E-1,4.101639748E0
8.624712138E0,-3.198673129E-1,-2.620254755E-1,3.620675087E0
8.629712138E0,-2.110433877E-1,-8.491909504E-2,3.244125366E0
8.634712138E0,-1.233397648E-1,5.543506145E-2,3.008973122E0
8.639712138E0,-8.924818784E-2,1.167671680E-1,2.908345222E0
8.644712138E0,-9.196806699E-2,1.193361282E-1,2.932936668E0
8.649712138E0,-1.245647296E-1,2.580153942E-2,3.025373459E0
8.654712138E0,-2.267105579E-1,-1.691600084E-1,3.190181732E0
8.659712138E0,-3.634012640E-1,-4.381912947E-1,3.390429497E0
8.664712138E0,-4.889332056E-1,-8.365712166E-1,3.668909073E0
8.669712138E0,-6.387668252E-1,-1.297461152E0,3.971210480E0
8.674712138E0,-8.066094518E-1,-1.758365989E0,4.255451202E0
8.679712138E0,-1.004421830E0,-2.170481205E0,4.470999718E0
8.684712138E0,-1.189203262E0,-2.527024269E0,4.605791092E0
8.689712138E0,-1.283483148E0,-2.836614609E0,4.682989120E0
8.694712138E0,-1.310620308E0,-3.018857479E0,4.628777504E0
8.699712138E0,-1.304674625E0,-3.051834583E0,4.389954567E0
8.704712138E0,-1.254785299E0,-2.910025358E0,3.928581238E0
8.709712138E0,-1.140437245E0,-2.628253460E0,3.320838928E0
8.714712138E0,-9.616951942E-1,-2.280278444E0,2.609508514E0
8.719712138E0,-7.742059827E-1,-1.908749700E0,1.907500267E0
8.724712138E0,-5.800452232E-1,-1.553465486E0,1.243551254E0
8.729712138E0,-3.473636806E-1,-1.240636349E0,6.272296906E-1
8.734712138E0,-1.300427020E-1,-9.542020559E-1,7.013988495E-2
8.739712138E0,1.627859287E-2,-7.076220512E-1,-4.509630203E-1
8.744712138E0,9.412506223E-2,-5.368497372E-1,-8.957395554E-1
8.749712138E0,1.797895730E-1,-4.407597780E-1,-1.266798019E0
8.754712138E0,1.641103327E-1,-3.929797411E-1,-1.496503830E0
8.759712138E0,6.068148836E-2,-4.166761637E-1,-1.622014046E0
8.764712138E0,-7.531128079E-2,-4.877480268E-1,-1.630977631E0
8.769712138E0,-2.049989998E-1,-6.234742403E-1,-1.528051376E0
8.774712138E0,-3.258032501E-1,-8.011271954E-1,-1.382219315E0
8.779712138E0,-4.357141852E-1,-9.723458886E-1,-1.210628510E0
8.784712138E0,-5.547960997E-1,-1.128813505E0,-1.072377205E0
8.789712138E0,-6.530858874E-1,-1.249114394E0,-1.013319969E0
8.794712138E0,-6.924541593E-1,-1.325769901E0,-1.005127907E0
8.799712138E0,-7.366684079E-1,-1.364499688E0,-9.970493317E-1
8.804712138E0,-7.620065212E-1,-1.367708921E0,-9.843349457E-1
8.809712138E0,-7.485145330E-1,-1.343128681E0,-9.904699326E-1
8.814712138E0,-6.312899590E-1,-1.261005402E0,-1.026969910E0
8.819712138E0,-4.708527327E-1,-1.118324995E0,-1.060028076E0
8.824712138E0,-2.997994423E-1,-9.025390148E-1,-1.091604233E0
8.829712138E0,-1.831021458E-1,-6.951891780E-1,-1.156580925E0
8.834712138E0,-1.527905315E-1,-4.960737228E-1,-1.206937790E0
8.839712138E0,-1.524105668E-1,-3.510451317E-1,-1.272533417E0
8.844712138E0,-1.834934801E-1,-2.556350231E-1,-1.359669685E0
8.849712138E0,-2.412963659E-1,-2.456208467E-1,-1.479425430E0
8.854712138E0,-3.451398313E-1,-2.713232040E-1,-1.645238876E0
8.859712138E0,-4.979169369E-1,-3.140491247E-1,-1.857194901E0
8.864712138E0,-6.631291509E-1,-3.545964956E-1,-2.048157215E0
8.869712138E0,-8.344199657E-1,-4.091056585E-1,-2.214121819E0
8.874712138E0,-1.002690673E0,-4.968824387E-1,-2.428995132E0
8.879712138E0,-1.119303346E0,-5.645237565E-1,-2.607789993E0
8.884712138E0,-1.213233352E0,-6.280958652E-1,-2.768790245E0
8.889712138E0,-1.296324134E0,-6.870226860E-1,-2.849157810E0
8.894712138E0,-1.374257207E0,-7.287785411E-1,-2.874923229E0
8.899712138E0,-1.466028452E0,-8.125834465E-1,-2.866996765E0
8.904712138E0,-1.548295975E0,-8.950959444E-1,-2.793943405E0
8.909712138E0,-1.599572062E0,-9.577734470E-1,-2.693670750E0
8.914712138E0,-1.614424348E0,-1.019253612E0,-2.589250565E0
8.919712138E0,-1.621065736E0,-1.026240110E0,-2.491898060E0
8.924712138E0,-1.600728154E0,-9.885379076E-1,-2.389102936E0
8.929712138E0,-1.521436453E0,-9.234684706E-1,-2.267083168E0
8.934712138E0,-1.416604996E0,-8.311765194E-1,-2.152106762E0
8.939712138E0,-1.296932578E0,-7.155849338E-1,-2.033554077E0
8.944712138E0,-1.210164070E0,-5.633833408E-1,-1.917757988E0
8.949712138E0,-1.111965537E0,-4.476004839E-1,-1.828050613E0
8.954712138E0,-9.858094454E-1,-3.556724787E-1,-1.764827251E0
8.959712138E0,-8.683267832E-1,-2.412898540E-1,-1.711308479E0
8.964712138E0,-6.548955441E-1,-1.609066725E-1,-1.638726234E0
8.969712138E0,-2.550942898E-1,-1.710991859E-1,-1.543732643E0
8.974712138E0,-3.182683587E-1,3.489446640E-2,-1.548901558E0
8.979712138E0,-6.099356413E-1,3.499805927E-1,-1.501543999E0
8.984712138E0,-6.786721349E-1,6.298196316E-1,-1.527916908E0
8.989712138E0,-4.539601803E-1,7.905966043E-1,-1.496971130E0
8.994712138E0,-2.728484273E-1,8.004961014E-1,-1.412300110E0
8.999712138E0,-2.694190741E-1,7.417930365E-1,-1.266888618E0
9.004712138E0,-3.755677044E-1,6.629902124E-1,-1.104517937E0
9.009712138E0,-4.969131052E-1,5.900605917E-1,-9.763202667E-1
9.014712138E0,-6.407344341E-1,5.262860060E-1,-8.630638123E-1
9.019712138E0,-8.252488375E-1,4.239305258E-1,-8.082580566E-1
9.024712138E0,-9.798723459E-1,3.136013746E-1,-7.384710312E-1
9.029712138E0,-1.143961310E0,1.969836950E-1,-6.361637115E-1
9.034712138E0,-1.305415630E0,8.158743382E-2,-5.216236115E-1
9.039712138E0,-1.414804816E0,-3.801345825E-3,-3.891401291E-1
9.044712138E0,-1.485192537E0,-3.969562054E-2,-2.067480087E-1
9.049712138E0,-1.549916267E0,-4.401683807E-2,-1.166248322E-2
9.054712138E0,-1.591025591E0,5.116224289E-3,1.638050079E-1
9.059712138E0,-1.601269484E0,1.034873724E-1,2.990846634E-1
9.064712138E0,-1.563011765E0,2.309563160E-1,4.320936203E-1
9.069712138E0,-1.447603226E0,3.653277159E-1,5.602264404E-1
9.074712138E0,-1.329699039E0,5.122470856E-1,6.524038315E-1
9.079712138E0,-1.205749989E0,6.261091232E-1,6.973772049E-1
9.084712138E0,-1.083054543E0,7.361840010E-1,6.822280884E-1
9.089712138E0,-9.740782976E-1,8.282210827E-1,5.803728104E-1
9.094712138E0,-9.147861004E-1,9.028615952E-1,4.504480362E-1
9.099712138E0,-8.784880638E-1,9.780323505E-1,3.029136658E-1
9.104712138E0,-8.031620979E-1,1.198828340E0,1.290063858E-1
9.109712138E0,-6.885763407E-1,1.363148212E0,3.226079941E-1
9.114712138E0,-6.968557835E-1,9.776922464E-1,4.683914185E-1
9.119712138E0,-6.377091408E-1,8.107687235E-1,2.448987961E-1
9.124712138E0,-6.721982956E-1,4.644732475E-1,4.245176315E-1
9.129712138E0,-7.182779312E-1,5.662679672E-2,6.206035614E-1
9.134712138E0,-7.577815056E-1,-2.470362186E-1,8.631925583E-1
9.139712138E0,-6.694447398E-1,-3.785686493E-1,1.222191811E0
9.144712138E0,-4.644808769E-1,-4.400162101E-1,1.642957687E0
9.149712138E0,-3.249011040E-1,-5.745596886E-1,2.032992363E0
9.154712138E0,-2.927635312E-1,-7.772781849E-1,2.364770889E0
9.159712138E0,-2.890688181E-1,-9.672265649E-1,2.679456711E0
9.164712138E0,-2.580246925E-1,-1.034335971E0,2.942427635E0
9.169712138E0,-2.308185548E-1,-9.887185097E-1,3.121580124E0
9.174712138E0,-2.038625181E-1,-8.688666224E-1,3.191925049E0
9.179712138E0,-1.444486678E-1,-7.165497541E-1,3.160511971E0
9.184712138E0,-7.629299164E-2,-5.157225728E-1,3.039428711E0
9.189712138E0,-2.522546053E-2,-3.388611674E-1,2.844012260E0
9.194712138E0,2.421650290E-2,-1.775081158E-1,2.639188766E0
9.199712138E0,4.982879758E-2,-4.653012753E-2,2.381447792E0
9.204712138E0,6.694039702E-2,7.328259945E-2,2.084441185E0
9.209712138E0,7.964551449E-2,1.488717794E-1,1.855286598E0
9.214712138E0,1.051829159E-1,2.283593416E-1,1.754279137E0
9.219712138E0,1.118521094E-1,2.749617100E-1,1.770961761E0
9.224712138E0,7.365763187E-2,2.513096333E-1,1.879705429E0
9.229712138E0,4.331415892E-2,1.841841936E-1,2.056529045E0
9.234712138E0,1.898092031E-2,4.799282551E-2,2.311444283E0
9.239712138E0,-1.500356197E-2,-1.311428547E-1,2.596168518E0
9.244712138E0,-4.344457388E-2,-3.126258850E-1,2.874095917E0
9.249712138E0,-1.070685983E-1,-4.674867392E-1,3.155664444E0
9.254712138E0,-2.231906056E-1,-5.927434564E-1,3.388094902E0
9.259712138E0,-3.123944402E-1,-6.920976043E-1,3.536213875E0
9.264712138E0,-3.569757342E-1,-7.901110649E-1,3.602064133E0
9.269712138E0,-3.486880064E-1,-8.364925981E-1,3.595944405E0
9.274712138E0,-2.769289613E-1,-8.465737104E-1,3.478126526E0
9.279712138E0,-1.956393719E-1,-8.397068381E-1,3.242712975E0
9.284712138E0,-1.254726648E-1,-7.942494750E-1,2.943759918E0
9.289712138E0,-2.406817675E-2,-7.067624927E-1,2.525174141E0
9.294712138E0,8.325994015E-2,-6.011114120E-1,2.022171021E0
9.299712138E0,1.757318377E-1,-5.210831165E-1,1.440796852E0
9.304712138E0,2.898931503E-1,-4.575823545E-1,9.400882721E-1
9.309712138E0,4.091938138E-1,-4.016958475E-1,5.055437088E-1
9.314712138E0,4.890628457E-1,-3.756431937E-1,1.711120605E-1
9.319712138E0,5.448276401E-1,-3.855112791E-1,-9.295082092E-2
9.324712138E0,5.771098733E-1,-4.359836578E-1,-2.816524506E-1
9.329712138E0,5.681734085E-1,-5.193858147E-1,-3.973007202E-1
9.334712138E0,5.317478776E-1,-6.166589260E-1,-4.253120422E-1
9.339712138E0,5.066233873E-1,-7.267606854E-1,-4.223346710E-1
9.344712138E0,4.858143330E-1,-8.136978149E-1,-3.733968735E-1
9.349712138E0,4.853833914E-1,-9.255289435E-1,-3.111333847E-1
9.354712138E0,4.818030000E-1,-1.018472910E0,-2.183609009E-1
9.359712138E0,4.932092428E-1,-1.093539238E0,-1.176948547E-1
9.364712138E0,5.094699264E-1,-1.141302824E0,5.990028381E-3
9.369712138E0,5.010339618E-1,-1.175585389E0,1.033363342E-1
9.374712138E0,5.015640259E-1,-1.199412584E0,1.731681824E-1
9.379712138E0,4.935733676E-1,-1.240110874E0,2.469596863E-1
9.384712138E0,4.999009967E-1,-1.227325320E0,2.955121994E-1
9.389712138E0,4.995322824E-1,-1.208718300E0,2.785768509E-1
9.394712138E0,5.067933202E-1,-1.165581107E0,2.100067139E-1
9.399712138E0,5.259338617E-1,-1.088111162E0,1.123113632E-1
9.404712138E0,5.440280437E-1,-1.014511347E0,-3.309726715E-2
9.409712138E0,5.861327052E-1,-9.233015180E-1,-1.612653732E-1
9.414712138E0,6.147666574E-1,-8.393858671E-1,-3.429508209E-1
9.419712138E0,6.284498572E-1,-7.360007763E-1,-5.706653595E-1
9.424712138E0,6.231145263E-1,-6.301211119E-1,-8.262977600E-1
9.429712138E0,6.328616142E-1,-5.381945372E-1,-1.090682030E0
9.434712138E0,6.190489531E-1,-4.911121130E-1,-1.350968361E0
9.439712138E0,5.592929721E-1,-4.376778603E-1,-1.625193596E0
9.444712138E0,4.874225855E-1,-3.899769783E-1,-1.895892143E0
9.449712138E0,4.346377850E-1,-3.818730116E-1,-2.139027119E0
9.454712138E0,4.010995626E-1,-3.798071146E-1,-2.355858803E0
9.459712138E0,3.633059859E-1,-3.663290739E-1,-2.576694489E0
9.464712138E0,2.855152488E-1,-3.609255552E-1,-2.788914680E0
9.469712138E0,1.616300344E-1,-4.024296999E-1,-2.958882332E0
9.474712138E0,4.037439823E-2,-4.689075947E-1,-3.084172249E0
9.479712138E0,-1.013019681E-1,-5.078682303E-1,-3.171745777E0
9.484712138E0,-2.298123240E-1,-5.386520624E-1,-3.222750664E0
9.489712138E0,-3.408094943E-1,-5.842131376E-1,-3.212782860E0
9.494712138E0,-4.194424748E-1,-6.421014667E-1,-3.187699318E0
9.499712138E0,-4.738512337E-1,-6.775945425E-1,-3.159265518E0
9.504712138E0,-5.032235384E-1,-6.920517683E-1,-3.149719238E0
9.509712138E0,-5.099479556E-1,-6.684229970E-1,-3.132509708E0
9.514712138E0,-4.716778398E-1,-6.198403835E-1,-3.093512535E0
9.519712138E0,-3.826172948E-1,-5.315132141E-1,-3.027873993E0
9.524712138E0,-2.857125700E-1,-4.290415049E-1,-2.940064907E0
9.529712138E0,-1.821256280E-1,-3.280876875E-1,-2.846342564E0
9.534712138E0,-5.753833055E-2,-2.189272642E-1,-2.787325859E0
9.539712138E0,2.079921961E-2,-1.083405018E-1,-2.778374672E0
9.544712138E0,8.661323786E-2,5.732059479E-3,-2.822897911E0
9.549712138E0,1.338667870E-1,9.313595295E-2,-2.903923035E0
9.554712138E0,1.583981514E-1,1.780682802E-1,-2.975526810E0
9.559712138E0,1.518715620E-1,2.349220514E-1,-3.020233154E0
9.564712138E0,1.425137222E-1,2.743729353E-1,-3.011615276E0
9.569712138E0,9.116145968E-2,2.812998295E-1,-2.956117630E0
9.574712138E0,-6.960690022E-3,2.605605125E-1,-2.922421455E0
9.579712138E0,-1.470371485E-1,2.080190182E-1,-2.862085819E0
9.584712138E0,-2.601951659E-1,1.574523449E-1,-2.791424751E0
9.589712138E0,-4.010238945E-1,1.158949137E-1,-2.690962791E0
9.594712138E0,-5.297194719E-1,8.840906620E-2,-2.542328835E0
9.599712138E0,-6.073061228E-1,6.548678875E-2,-2.366472244E0
9.604712138E0,-6.549779177E-1,4.952561855E-2,-2.131543636E0
9.609712138E0,-6.912273169E-1,4.944789410E-2,-1.888751507E0
9.614712138E0,-7.180944085E-1,7.416462898E-2,-1.628466606E0
9.619712138E0,-7.911173105E-1,1.027269363E-1,-1.358264923E0
9.624712138E0,-8.663821220E-1,1.198878288E-1,-1.119232178E0
9.629712138E0,-9.373722076E-1,1.449869871E-1,-8.712215424E-1
9.634712138E0,-9.594703913E-1,2.090810537E-1,-6.087007523E-1
9.639712138E0,-9.264958501E-1,2.873686552E-1,-3.884735107E-1
9.644712138E0,-8.607650995E-1,3.892563581E-1,-2.545251846E-1
9.649712138E0,-7.624429464E-1,5.204399824E-1,-1.775989532E-1
9.654712138E0,-6.451636553E-1,6.476228237E-1,-1.349973679E-1
9.659712138E0,-5.324270725E-1,7.622836828E-1,-1.227493286E-1
9.664712138E0,-4.141376317E-1,8.563388586E-1,-7.380199432E-2
9.669712138E0,-2.579639554E-1,9.642854929E-1,-1.735877991E-2
9.674712138E0,-9.802183509E-2,1.058088660E0,4.731464386E-2
9.679712138E0,5.526494980E-2,1.134830952E0,1.464490891E-1
9.684712138E0,1.522406936E-1,1.196132421E0,3.060588837E-1
9.689712138E0,1.918866038E-1,1.194283724E0,4.543008804E-1
9.694712138E0,2.417559624E-1,1.122078300E0,6.622991562E-1
9.699712138E0,2.607648373E-1,1.030904293E0,8.856468201E-1
9.704712138E0,2.580949962E-1,9.226620197E-1,1.187864304E0
9.709712138E0,2.051602304E-1,8.237639666E-1,1.458668709E0
9.714712138E0,1.347032189E-1,7.168170214E-1,1.680348396E0
9.719712138E0,6.234619021E-2,6.309783459E-1,1.916715622E0
9.724712138E0,-4.123747349E-3,5.407143831E-1,2.105339050E0
9.729712138E0,-6.374883652E-2,4.553778172E-1,2.269148827E0
9.734712138E0,-1.493480504E-1,4.029216766E-1,2.379457474E0
9.739712138E0,-2.122492492E-1,3.969256878E-1,2.466208458E0
9.744712138E0,-2.645016909E-1,4.298834801E-1,2.451883316E0
9.749712138E0,-2.933160067E-1,4.805618525E-1,2.333678246E0
9.754712138E0,-2.891184986E-1,5.429239273E-1,2.129950523E0
9.759712138E0,-3.005123138E-1,6.178559065E-1,1.951169968E0
9.764712138E0,-2.713041306E-1,6.775814295E-1,1.750689507E0
9.769712138E0,-2.620435059E-1,7.387198210E-1,1.563285828E0
9.774712138E0,-2.478230596E-1,7.403591871E-1,1.389891624E0
9.779712138E0,-2.260299325E-1,7.433439493E-1,1.260873795E0
9.784712138E0,-1.863887161E-1,7.407869101E-1,1.205863953E0
9.789712138E0,-1.636791527E-1,7.250474691E-1,1.221367836E0
9.794712138E0,-1.593461484E-1,6.581619978E-1,1.321379662E0
9.799712138E0,-1.669636518E-1,5.056737661E-1,1.654151917E0
9.804712138E0,-1.794328690E-1,2.906265259E-1,2.142924309E0
9.809712138E0,-2.210177779E-1,1.293587685E-2,2.763783455E0
9.814712138E0,-3.258339763E-1,-3.249875307E-1,3.433018684E0
9.819712138E0,-4.686613381E-1,-6.848962307E-1,4.146845818E0
9.824712138E0,-6.601107121E-1,-1.057683587E0,4.884569168E0
9.829712138E0,-8.779734373E-1,-1.395937562E0,5.567616463E0
9.834712138E0,-1.085140228E0,-1.709085941E0,6.054727554E0
9.839712138E0,-1.220688939E0,-1.933821678E0,6.290527344E0
9.844712138E0,-1.303621888E0,-2.035521030E0,6.268905640E0
9.849712138E0,-1.342483759E0,-2.016771078E0,5.948900223E0
9.854712138E0,-1.324949026E0,-1.883819461E0,5.336374283E0
9.859712138E0,-1.221805096E0,-1.680480003E0,4.507123947E0
9.864712138E0,-1.069820881E0,-1.432569981E0,3.511528969E0
9.869712138E0,-8.938335180E-1,-1.160649180E0,2.555832863E0
9.874712138E0,-6.843274832E-1,-8.921093941E-1,1.703908920E0
9.879712138E0,-4.292463958E-1,-6.651772261E-1,9.627027512E-1
9.884712138E0,-2.098636776E-1,-5.015085936E-1,2.824802399E-1
9.889712138E0,-7.518337667E-2,-3.965018988E-1,-2.569093704E-1
9.894712138E0,2.732709050E-3,-3.184356093E-1,-6.406974792E-1
9.899712138E0,5.300629139E-2,-2.981029749E-1,-8.923463821E-1
9.904712138E0,4.416865110E-2,-3.533725142E-1,-9.744272232E-1
9.909712138E0,-2.048175037E-2,-4.606440067E-1,-9.321832657E-1
9.914712138E0,-8.859352022E-2,-6.084890366E-1,-7.787809372E-1
9.919712138E0,-1.509489119E-1,-7.593280673E-1,-5.277814865E-1
9.924712138E0,-2.022242397E-1,-9.045027494E-1,-2.409934998E-1
9.929712138E0,-2.451880276E-1,-1.039520741E0,-4.766941071E-2
9.934712138E0,-2.965862155E-1,-1.140718222E0,8.341121674E-2
9.939712138E0,-3.407542706E-1,-1.212591767E0,1.203269958E-1
9.944712138E0,-4.189418554E-1,-1.246856093E0,1.441869736E-1
9.949712138E0,-4.613286853E-1,-1.245816469E0,8.498859406E-2
9.954712138E0,-4.795643091E-1,-1.220409036E0,-5.064010620E-3
9.959712138E0,-4.908284247E-1,-1.198884845E0,-1.827430725E-1
9.964712138E0,-5.127003193E-1,-1.141853690E0,-4.490013123E-1
9.969712138E0,-5.272440910E-1,-1.046020627E0,-7.702836990E-1
9.974712138E0,-5.434250832E-1,-9.244805574E-1,-1.137373924E0
9.979712138E0,-5.375933647E-1,-7.924079299E-1,-1.478751183E0
9.984712138E0,-5.523466468E-1,-7.046296000E-1,-1.780860901E0
9.989712138E0,-5.694043636E-1,-6.285252571E-1,-2.064790249E0
9.994712138E0,-5.903514624E-1,-5.703127384E-1,-2.298939705E0
9.999712138E0,-6.147198677E-1,-5.562026501E-1,-2.476535797E0
1.000471214E1,-6.632312536E-1,-5.387954116E-1,-2.590956688E0
1.000971214E1,-7.500365973E-1,-5.439171195E-1,-2.672162056E0
1.001471214E1,-8.292938471E-1,-5.988357067E-1,-2.717888832E0
1.001971214E1,-8.946391940E-1,-6.440012455E-1,-2.717351913E0
1.002471214E1,-9.761227369E-1,-7.092190981E-1,-2.676222324E0
1.002971214E1,-1.044497252E0,-7.722791433E-1,-2.624235153E0
1.003471214E1,-1.139421940E0,-8.369566202E-1,-2.575322628E0
1.003971214E1,-1.201361775E0,-9.060635567E-1,-2.517283440E0
1.004471214E1,-1.206802487E0,-9.706455469E-1,-2.481004715E0
