"Time (s)","Acceleration x (m/s^2)","Acceleration y (m/s^2)","Acceleration z (m/s^2)"
9.224660000E-4,-4.096512318E0,1.335195065E0,8.216953278E0
3.029132000E-3,-4.110869408E0,1.205982566E0,8.331808090E0
5.136893000E-3,-4.091726780E0,1.095912814E0,8.494520187E0
7.242362000E-3,-4.039084435E0,1.004985452E0,8.652446747E0
9.348976000E-3,-3.991228104E0,9.762716293E-1,8.834300995E0
1.145762200E-2,-3.948157310E0,9.571290612E-1,9.006584167E0
1.356371600E-2,-3.890729666E0,9.619147182E-1,9.097511292E0
1.566954900E-2,-3.799802303E0,1.009771109E0,9.221938133E0
1.777548700E-2,-3.728017569E0,1.081555843E0,9.365508080E0
1.988210100E-2,-3.622733593E0,1.153340459E0,9.585647583E0
2.198871600E-2,-3.493520975E0,1.234696507E0,9.772287369E0
2.409533000E-2,-3.378665686E0,1.335195065E0,9.949356079E0
2.620236200E-2,-3.235096216E0,1.445264935E0,1.013121128E1
2.830861200E-2,-3.091526747E0,1.545763373E0,1.025563812E1
3.041522600E-2,-2.971885681E0,1.660618901E0,1.037049294E1
3.252184100E-2,-2.871387243E0,1.765903115E0,1.048056316E1
3.462845500E-2,-2.770888567E0,1.861616015E0,1.055234814E1
3.673512200E-2,-2.727817774E0,1.942971945E0,1.064327526E1
3.884173700E-2,-2.689532757E0,2.019542217E0,1.071506023E1
4.094835100E-2,-2.641676188E0,2.091326952E0,1.082512951E1
4.305496600E-2,-2.636890650E0,2.139183521E0,1.086341476E1
4.516163200E-2,-2.636890650E0,2.196611166E0,1.090170002E1
4.726824700E-2,-2.622533560E0,2.239681959E0,1.089212894E1
4.937486200E-2,-2.608176708E0,2.287538528E0,1.086820030E1
5.148147600E-2,-2.612962246E0,2.306680918E0,1.081077290E1
5.358809100E-2,-2.617748022E0,2.335394859E0,1.071506023E1
5.569626800E-2,-2.612962246E0,2.354537487E0,1.059541893E1
5.780137200E-2,-2.608176708E0,2.388036966E0,1.043270683E1
5.990798700E-2,-2.694318295E0,2.388036966E0,1.028913784E1
6.201460100E-2,-2.751745939E0,2.388036966E0,1.014556789E1
6.412121600E-2,-2.809173822E0,2.364108801E0,1.002114105E1
6.622783000E-2,-2.876172781E0,2.344966173E0,9.858428955E0
6.833444500E-2,-2.943171740E0,2.330609322E0,9.676574707E0
7.044111200E-2,-2.995813847E0,2.316252232E0,9.499505997E0
7.254772600E-2,-3.038884640E0,2.292324066E0,9.274580956E0
7.465434100E-2,-3.096312523E0,2.282752752E0,9.102297783E0
7.676095500E-2,-3.139383316E0,2.258824587E0,8.934800148E0
7.886762200E-2,-3.192025423E0,2.230110645E0,8.800801277E0
8.097423700E-2,-3.225524902E0,2.196611166E0,8.681160927E0
8.308085100E-2,-3.268595695E0,2.167897224E0,8.566305161E0
8.518746600E-2,-3.321237803E0,2.134397745E0,8.484949112E0
8.729408000E-2,-3.369094372E0,2.096112728E0,8.398807526E0
8.940074700E-2,-3.388236761E0,2.072184324E0,8.360522270E0
9.150736200E-2,-3.416950703E0,2.009970903E0,8.307880402E0
9.361397600E-2,-3.421736479E0,1.938186288E0,8.264809608E0
9.572059100E-2,-3.450450182E0,1.861616015E0,8.212167740E0
9.782725700E-2,-3.479164124E0,1.799402595E0,8.126026154E0
9.993382000E-2,-3.493520975E0,1.713261008E0,8.092526436E0
1.020404870E-1,-3.507878065E0,1.651047587E0,8.030312538E0
1.041471010E-1,-3.531806231E0,1.569691658E0,7.992027760E0
1.062537160E-1,-3.555734396E0,1.497906923E0,7.948956966E0
1.083603300E-1,-3.574877024E0,1.426122308E0,7.925028801E0
1.104669970E-1,-3.589233875E0,1.368694544E0,7.896314621E0
1.125736120E-1,-3.574877024E0,1.282552958E0,7.896314621E0
1.146802260E-1,-3.570091486E0,1.239482164E0,7.896314621E0
1.167868410E-1,-3.570091486E0,1.205982566E0,7.901100159E0
1.188934550E-1,-3.574877024E0,1.148554921E0,7.977670670E0
1.210000700E-1,-3.555734396E0,1.105484009E0,8.020741463E0
1.231067370E-1,-3.517449379E0,1.095912814E0,8.054241180E0
1.252133510E-1,-3.503092289E0,1.076770186E0,8.078168869E0
1.273199660E-1,-3.469592810E0,1.052842021E0,8.106883049E0
1.294265800E-1,-3.436093330E0,1.033699393E0,8.116454124E0
1.315332470E-1,-3.402593851E0,1.043270707E0,8.159524918E0
1.336398620E-1,-3.373879910E0,1.048056364E0,8.274380684E0
1.357464760E-1,-3.364308596E0,1.067198873E0,8.379665375E0
1.378530910E-1,-3.345165968E0,1.076770186E0,8.508877754E0
1.399597050E-1,-3.292523861E0,1.081555843E0,8.590232849E0
1.420663200E-1,-3.249453068E0,1.091127157E0,8.695517540E0
1.441729870E-1,-3.177668571E0,1.091127157E0,8.843872070E0
1.462796010E-1,-3.110669374E0,1.095912814E0,8.987442017E0
1.483868930E-1,-3.043670416E0,1.110269666E0,9.150154114E0
1.504928300E-1,-2.986242771E0,1.105484009E0,9.279366493E0
1.525994450E-1,-2.904886723E0,1.095912814E0,9.360722542E0
1.547061120E-1,-2.871387243E0,1.110269666E0,9.470791817E0
1.568127260E-1,-2.885744095E0,1.119840980E0,9.633503914E0
1.589193410E-1,-2.876172781E0,1.129412293E0,9.801001549E0
1.610260070E-1,-2.866601467E0,1.124626637E0,9.896714211E0
1.631326220E-1,-2.842673302E0,1.138983607E0,9.944570541E0
1.652392370E-1,-2.847458839E0,1.143769264E0,1.001156998E1
1.673458510E-1,-2.837887764E0,1.115055323E0,1.008335495E1
1.694524660E-1,-2.823530674E0,1.105484009E0,1.012642574E1
1.715591320E-1,-2.809173822E0,1.076770186E0,1.019342422E1
1.736656950E-1,-2.766103029E0,1.043270707E0,1.019820976E1
1.757723620E-1,-2.756531715E0,1.004985452E0,1.020778179E1
1.778789760E-1,-2.713460922E0,9.571290612E-1,1.021735287E1
1.799855910E-1,-2.723032236E0,9.236295223E-1,1.021735287E1
1.820922050E-1,-2.689532757E0,8.662018180E-1,1.024606609E1
1.841988200E-1,-2.679961443E0,8.327022791E-1,1.024606609E1
1.863054340E-1,-2.670390129E0,8.087740541E-1,1.025085258E1
1.884121010E-1,-2.660818815E0,7.896314859E-1,1.022692394E1
1.905187160E-1,-2.646461725E0,7.704889178E-1,1.025563812E1
1.926253300E-1,-2.627319336E0,7.417750359E-1,1.023649502E1
1.947319450E-1,-2.622533560E0,7.417750359E-1,1.023649502E1
1.968385590E-1,-2.622533560E0,7.369893789E-1,1.021735287E1
1.989452260E-1,-2.612962246E0,7.322037220E-1,1.019342422E1
2.010518410E-1,-2.612962246E0,7.274180651E-1,1.019342422E1
2.031584550E-1,-2.656033039E0,7.274180651E-1,1.019342422E1
2.052650700E-1,-2.665604353E0,7.609176040E-1,1.015992451E1
2.073717370E-1,-2.694318295E0,7.561319470E-1,1.008814049E1
2.094783510E-1,-2.689532757E0,8.087740541E-1,1.006421185E1
2.115849660E-1,-2.718246460E0,8.470591903E-1,1.004985523E1
2.136916320E-1,-2.727817774E0,8.757730722E-1,1.001156998E1
2.157982470E-1,-2.708675146E0,8.805587292E-1,9.954142570E0
2.179048620E-1,-2.703889608E0,9.044869542E-1,9.925428391E0
2.200114760E-1,-2.694318295E0,8.757730722E-1,9.901499748E0
2.221180910E-1,-2.684746981E0,8.662018180E-1,9.872786522E0
2.242247050E-1,-2.641676188E0,8.518448472E-1,9.853643417E0
2.263313200E-1,-2.627319336E0,8.279166222E-1,9.853643417E0
2.284379340E-1,-2.608176708E0,8.039883971E-1,9.872786522E0
2.305446010E-1,-2.589034081E0,7.944171429E-1,9.915857315E0
2.326512160E-1,-2.569891453E0,7.609176040E-1,9.939785004E0
2.347578300E-1,-2.545963287E0,7.513462901E-1,9.963713646E0
2.368644450E-1,-2.502892494E0,7.226324677E-1,9.963713646E0
2.389711120E-1,-2.464607239E0,7.130611539E-1,9.978070259E0
2.410777260E-1,-2.440679073E0,7.034898400E-1,9.963713646E0
2.431843410E-1,-2.402393818E0,6.795616150E-1,9.968499184E0
2.452909550E-1,-2.359323025E0,6.604190469E-1,9.973284721E0
2.473976220E-1,-2.311466694E0,6.412764788E-1,9.968499184E0
2.495042370E-1,-2.287538528E0,6.077769399E-1,9.954142570E0
2.516108510E-1,-2.263610125E0,5.694918036E-1,9.973284721E0
2.537174660E-1,-2.254039049E0,5.599204898E-1,9.958928108E0
2.558240800E-1,-2.239681959E0,5.455635786E-1,9.934999466E0
2.579306950E-1,-2.230110645E0,5.455635786E-1,9.949356079E0
2.600373620E-1,-2.249253273E0,5.503492355E-1,9.958928108E0
2.621439240E-1,-2.239681959E0,5.503492355E-1,9.949356079E0
2.642505910E-1,-2.254039049E0,5.647061467E-1,9.968499184E0
2.663572050E-1,-2.263610125E0,5.647061467E-1,9.973284721E0
2.684638200E-1,-2.287538528E0,5.694918036E-1,9.958928108E0
2.705704340E-1,-2.287538528E0,5.838487148E-1,9.949356079E0
2.726770490E-1,-2.287538528E0,5.886343718E-1,9.944570541E0
2.747837160E-1,-2.297109842E0,5.838487148E-1,9.934999466E0
2.768903300E-1,-2.335394859E0,6.029912829E-1,9.906285286E0
2.789969970E-1,-2.330609322E0,5.886343718E-1,9.891928673E0
2.811036120E-1,-2.340180635E0,5.790630579E-1,9.863214493E0
2.832102260E-1,-2.344966173E0,5.599204898E-1,9.848857880E0
2.853168410E-1,-2.359323025E0,5.551348329E-1,9.824930191E0
2.874234550E-1,-2.349751949E0,5.455635786E-1,9.820143700E0
2.895300700E-1,-2.359323025E0,5.216353536E-1,9.810572624E0
2.916367370E-1,-2.325823545E0,5.216353536E-1,9.810572624E0
2.937433510E-1,-2.325823545E0,5.072783828E-1,9.801001549E0
2.958499660E-1,-2.287538528E0,4.977070987E-1,9.805787086E0
2.979565800E-1,-2.277967215E0,4.785645306E-1,9.824930191E0
3.000632470E-1,-2.249253273E0,4.689932466E-1,9.839286804E0
3.021698090E-1,-2.234896421E0,4.498506486E-1,9.839286804E0
3.042764760E-1,-2.201396942E0,4.498506486E-1,9.777072906E0
3.063830910E-1,-2.148754835E0,4.402793646E-1,9.729216576E0
3.084897050E-1,-2.100898266E0,4.211367965E-1,9.628718376E0
3.105963200E-1,-2.148754835E0,4.354937077E-1,9.824930191E0
3.127029340E-1,-2.167897224E0,4.642075896E-1,9.954142570E0
3.148096010E-1,-2.167897224E0,4.737788737E-1,9.911071777E0
3.169162160E-1,-2.153540373E0,4.737788737E-1,9.820143700E0
3.190228300E-1,-2.134397745E0,4.881358147E-1,9.753145218E0
3.211294450E-1,-2.086541414E0,4.785645306E-1,9.671789169E0
3.232360590E-1,-2.072184324E0,5.120640397E-1,9.623932838E0
3.253426740E-1,-2.053041935E0,5.120640397E-1,9.556933403E0
3.274493410E-1,-2.014756680E0,5.216353536E-1,9.485149384E0
3.295559550E-1,-2.014756680E0,5.359922647E-1,9.403793335E0
3.316625700E-1,-2.014756680E0,5.359922647E-1,9.332008362E0
3.337692370E-1,-2.014756680E0,5.455635786E-1,9.274580956E0
3.358758510E-1,-2.009970903E0,5.647061467E-1,9.245866776E0
3.379824660E-1,-2.019542217E0,5.599204898E-1,9.169296265E0
3.400890800E-1,-2.024327993E0,5.599204898E-1,9.121439934E0
3.421956950E-1,-2.024327993E0,5.359922647E-1,9.092725754E0
3.443023090E-1,-2.029113531E0,5.264210105E-1,9.049654961E0
3.464089760E-1,-2.048256159E0,5.359922647E-1,9.011369705E0
3.485155390E-1,-2.033899307E0,5.407779217E-1,8.997013092E0
3.506222050E-1,-2.048256159E0,5.264210105E-1,9.001798630E0
3.527288200E-1,-2.033899307E0,5.455635786E-1,8.987442017E0
3.548354340E-1,-2.024327993E0,5.359922647E-1,9.011369705E0
3.569420490E-1,-2.019542217E0,4.977070987E-1,9.001798630E0
3.590487160E-1,-1.962114573E0,4.689932466E-1,8.997013092E0
3.611553300E-1,-1.923829436E0,4.498506486E-1,8.977870941E0
3.632619450E-1,-1.909472466E0,4.163511395E-1,9.092725754E0
3.653685590E-1,-1.909472466E0,3.780659735E-1,9.260223389E0
3.674751740E-1,-1.890329838E0,3.302095234E-1,9.317651749E0
3.695818410E-1,-1.866401672E0,2.871387303E-1,9.399007797E0
3.716884550E-1,-1.828116536E0,2.249253243E-1,9.446864128E0
3.737950700E-1,-1.789831281E0,1.914258152E-1,9.504291534E0
3.759016840E-1,-1.751546144E0,1.435693651E-1,9.556933403E0
3.780082990E-1,-1.708475351E0,1.052841991E-1,9.604789734E0
3.801149140E-1,-1.655833244E0,4.785645381E-2,9.681360245E0
3.822215800E-1,-1.598405480E0,-9.571290575E-3,9.734002113E0
3.843281950E-1,-1.569691658E0,-6.221338734E-2,9.796216011E0
3.864348090E-1,-1.540977836E0,-1.244267747E-1,9.848857880E0
3.885414240E-1,-1.521835208E0,-1.531406492E-1,9.925428391E0
3.906480910E-1,-1.493121386E0,-2.009970993E-1,9.973284721E0
3.927547050E-1,-1.483550072E0,-2.488535494E-1,9.978070259E0
3.948613200E-1,-1.502692580E0,-2.727817893E-1,1.002114105E1
3.969679340E-1,-1.502692580E0,-3.062812984E-1,1.006421185E1
3.990745490E-1,-1.497906923E0,-3.062812984E-1,1.007378292E1
4.011811640E-1,-1.531406522E0,-3.110669553E-1,1.008814049E1
4.032878300E-1,-1.531406522E0,-3.254238665E-1,1.007378292E1
4.053944450E-1,-1.540977836E0,-3.158525825E-1,1.007378292E1
4.075010590E-1,-1.550549030E0,-3.110669553E-1,1.008335495E1
4.096076740E-1,-1.564906001E0,-3.014956415E-1,1.005942631E1
4.117142890E-1,-1.593619823E0,-2.632105052E-1,1.006899738E1
4.138209030E-1,-1.631905079E0,-2.584248483E-1,1.004985523E1
4.159275700E-1,-1.641476393E0,-2.392822653E-1,1.002592659E1
4.180341840E-1,-1.655833244E0,-2.057827413E-1,9.982855797E0
4.201408510E-1,-1.665404558E0,-1.435693651E-1,9.973284721E0
4.222474140E-1,-1.665404558E0,-1.292124242E-1,9.963713646E0
4.243540280E-1,-1.670190215E0,-8.614161611E-2,9.973284721E0
4.264606430E-1,-1.646261930E0,-5.742774159E-2,9.963713646E0
4.285673090E-1,-1.622333765E0,-1.435693540E-2,9.968499184E0
4.306739240E-1,-1.598405480E0,3.828516230E-2,9.949356079E0
4.327805390E-1,-1.564906001E0,4.785645381E-2,9.944570541E0
4.348872050E-1,-1.545763373E0,8.135596663E-2,9.911071777E0
4.369938200E-1,-1.517049551E0,1.004985496E-1,9.901499748E0
4.391004340E-1,-1.502692580E0,1.196411327E-1,9.891928673E0
4.412070490E-1,-1.483550072E0,1.483550072E-1,9.858428955E0
4.433137160E-1,-1.464407444E0,1.866401732E-1,9.844072342E0
4.454202780E-1,-1.426122308E0,2.057827413E-1,9.829715729E0
4.475269450E-1,-1.411765337E0,2.249253243E-1,9.767501831E0
4.496335590E-1,-1.392622828E0,2.392822653E-1,9.719645500E0
4.517401740E-1,-1.339980721E0,2.488535494E-1,9.681360245E0
4.538467890E-1,-1.287338614E0,2.488535494E-1,9.595218658E0
4.559534030E-1,-1.153340459E0,1.914258152E-1,9.188439369E0
4.580600180E-1,-1.167697430E0,2.105683982E-1,9.365508080E0
4.601666840E-1,-1.205982566E0,2.584248483E-1,9.657432556E0
4.622732990E-1,-1.215553880E0,2.632105052E-1,9.571290970E0
4.643799140E-1,-1.143769264E0,2.536391914E-1,9.375079155E0
4.664865280E-1,-1.095912814E0,2.105683982E-1,9.178867340E0
4.685931950E-1,-1.091127157E0,1.962114573E-1,9.236295700E0
4.706998090E-1,-1.095912814E0,1.722832322E-1,9.365508080E0
4.728064240E-1,-1.095912814E0,1.579262912E-1,9.365508080E0
4.749130390E-1,-1.086341500E0,1.148554832E-1,9.284152031E0
4.770197050E-1,-1.057627559E0,9.092725813E-2,9.255437851E0
4.791262680E-1,-1.067198873E0,6.221338734E-2,9.241081238E0
4.812329340E-1,-1.067198873E0,3.349951655E-2,9.284152031E0
4.833394970E-1,-1.067198873E0,1.435693540E-2,9.303294182E0
4.854461640E-1,-1.076770186E0,-3.349951655E-2,9.317651749E0
4.875527780E-1,-1.071984529E0,-5.264209956E-2,9.327222824E0
4.896594450E-1,-1.086341500E0,-6.699903309E-2,9.355937004E0
4.917660590E-1,-1.071984529E0,-1.004985496E-1,9.379864693E0
4.938726740E-1,-1.095912814E0,-1.052841991E-1,9.408578873E0
4.959792890E-1,-1.095912814E0,-1.387837082E-1,9.456435204E0
4.980859030E-1,-1.110269666E0,-1.674975902E-1,9.504291534E0
5.001925180E-1,-1.129412293E0,-1.770688742E-1,9.528220177E0
5.022991320E-1,-1.129412293E0,-1.818545163E-1,9.561718941E0
5.044057990E-1,-1.143769264E0,-1.914258152E-1,9.585647583E0
5.065124140E-1,-1.129412293E0,-2.344966233E-1,9.638289452E0
5.086190280E-1,-1.153340459E0,-2.297109663E-1,9.671789169E0
5.107256430E-1,-1.148554921E0,-2.392822653E-1,9.700503349E0
5.128323090E-1,-1.124626637E0,-2.632105052E-1,9.743574142E0
5.149388720E-1,-1.158126116E0,-2.632105052E-1,9.772287369E0
5.170455390E-1,-1.158126116E0,-2.632105052E-1,9.791430473E0
5.191521530E-1,-1.153340459E0,-2.727817893E-1,9.839286804E0
5.212587680E-1,-1.153340459E0,-2.775674164E-1,9.891928673E0
5.233654340E-1,-1.153340459E0,-2.632105052E-1,9.896714211E0
5.254720490E-1,-1.143769264E0,-2.536391914E-1,9.925428391E0
5.275786640E-1,-1.143769264E0,-2.153540403E-1,9.934999466E0
5.296852780E-1,-1.148554921E0,-2.057827413E-1,9.920642853E0
5.317918930E-1,-1.143769264E0,-1.722832322E-1,9.911071777E0
5.338985070E-1,-1.148554921E0,-1.387837082E-1,9.906285286E0
5.360051740E-1,-1.148554921E0,-1.052841991E-1,9.887143135E0
5.381117890E-1,-1.162911773E0,-7.657032460E-2,9.877572060E0
5.402184030E-1,-1.182054400E0,-3.349951655E-2,9.844072342E0
5.423250180E-1,-1.201196909E0,-4.785645287E-3,9.839286804E0
5.444316320E-1,-1.210768223E0,3.828516230E-2,9.805787086E0
5.465382470E-1,-1.244267821E0,9.571290761E-2,9.791430473E0
5.486449140E-1,-1.258624673E0,1.292124242E-1,9.757930756E0
5.507515280E-1,-1.272981644E0,1.627119333E-1,9.705288887E0
5.528581430E-1,-1.301695466E0,1.866401732E-1,9.671789169E0
5.549647570E-1,-1.335195065E0,1.914258152E-1,9.643074989E0
5.570714240E-1,-1.359123230E0,2.201396823E-1,9.609575272E0
5.591779870E-1,-1.387837172E0,2.536391914E-1,9.566504478E0
5.612846530E-1,-1.392622828E0,2.536391914E-1,9.556933403E0
5.633912680E-1,-1.406979680E0,2.632105052E-1,9.509077072E0
5.654978820E-1,-1.416550994E0,2.823530734E-1,9.504291534E0
5.676044970E-1,-1.416550994E0,2.823530734E-1,9.456435204E0
5.697111640E-1,-1.421336651E0,2.727817893E-1,9.432506561E0
5.718177780E-1,-1.378265858E0,2.584248483E-1,9.379864693E0
5.739243930E-1,-1.373480201E0,2.392822653E-1,9.332008362E0
5.760310070E-1,-1.359123230E0,2.057827413E-1,9.288937569E0
5.781376220E-1,-1.349551916E0,1.818545163E-1,9.231510162E0
5.802442890E-1,-1.335195065E0,1.339980662E-1,9.183652878E0
5.823509030E-1,-1.301695466E0,6.221338734E-2,9.140582085E0
5.844575180E-1,-1.287338614E0,1.914258115E-2,9.092725754E0
5.865641320E-1,-1.282552958E0,-3.828516230E-2,9.073583603E0
5.886707470E-1,-1.277767301E0,-5.742774159E-2,9.078369141E0
5.907773620E-1,-1.253839016E0,-1.196411327E-1,9.068798065E0
5.928840280E-1,-1.234696507E0,-1.483550072E-1,9.087940216E0
5.949906430E-1,-1.239482164E0,-2.009970993E-1,9.159725189E0
5.970972570E-1,-1.244267821E0,-2.297109663E-1,9.207581520E0
5.992038720E-1,-1.205982566E0,-2.727817893E-1,9.260223389E0
6.013104870E-1,-1.225125194E0,-2.919243574E-1,9.312865257E0
6.034171530E-1,-1.215553880E0,-3.254238665E-1,9.403793335E0
6.055237680E-1,-1.210768223E0,-3.876372576E-1,9.470791817E0
6.076303820E-1,-1.205982566E0,-4.163511395E-1,9.566504478E0
6.097369970E-1,-1.215553880E0,-4.402793646E-1,9.657432556E0
6.118436120E-1,-1.186840057E0,-4.737788737E-1,9.729216576E0
6.139502260E-1,-1.191625714E0,-5.072783828E-1,9.815358162E0
6.160568410E-1,-1.182054400E0,-5.312066078E-1,9.911071777E0
6.181635070E-1,-1.167697430E0,-5.790630579E-1,9.987641335E0
6.202701220E-1,-1.162911773E0,-5.982056856E-1,1.007856941E1
6.223767370E-1,-1.158126116E0,-6.508477330E-1,1.018385315E1
6.244834030E-1,-1.153340459E0,-7.034898400E-1,1.028435135E1
6.265899660E-1,-1.143769264E0,-7.417750359E-1,1.035135078E1
6.286966320E-1,-1.138983607E0,-7.992027402E-1,1.042313576E1
6.308032470E-1,-1.134197950E0,-8.566305041E-1,1.050927734E1
6.329098620E-1,-1.119840980E0,-8.757730722E-1,1.060499001E1
6.350164760E-1,-1.110269666E0,-9.140582681E-1,1.065284634E1
6.371230910E-1,-1.105484009E0,-9.475577474E-1,1.068156052E1
6.392297050E-1,-1.081555843E0,-9.714859724E-1,1.071506023E1
6.413363720E-1,-1.071984529E0,-9.667003751E-1,1.075334454E1
6.434429870E-1,-1.067198873E0,-9.906286001E-1,1.075813103E1
6.455496010E-1,-1.062413216E0,-9.858429432E-1,1.076291656E1
6.476562680E-1,-1.048056364E0,-9.810572863E-1,1.077727318E1
6.497628300E-1,-1.048056364E0,-9.762716293E-1,1.078205872E1
6.518694970E-1,-1.019342422E0,-9.619147182E-1,1.076291656E1
6.539761120E-1,-1.019342422E0,-9.044869542E-1,1.072941685E1
6.560827260E-1,-1.009771109E0,-8.805587292E-1,1.070070267E1
6.581893410E-1,-1.000199914E0,-8.327022791E-1,1.066241741E1
6.602959550E-1,-1.004985452E0,-8.087740541E-1,1.061934662E1
6.624026220E-1,-1.004985452E0,-7.704889178E-1,1.056670475E1
6.645092370E-1,-9.954141974E-1,-7.274180651E-1,1.051884842E1
6.666158510E-1,-9.954141974E-1,-6.843472719E-1,1.048534870E1
6.687224660E-1,-1.004985452E0,-6.556333899E-1,1.043749237E1
6.708290800E-1,-1.004985452E0,-5.982056856E-1,1.038963604E1
6.729357470E-1,-9.906286001E-1,-5.312066078E-1,1.034656525E1
6.750423620E-1,-9.954141974E-1,-4.737788737E-1,1.028435135E1
6.771489760E-1,-9.906286001E-1,-3.924229145E-1,1.023170948E1
6.792555910E-1,-9.523434043E-1,-3.158525825E-1,1.018863869E1
6.813622050E-1,-9.427721500E-1,-2.392822653E-1,1.013121128E1
6.834688200E-1,-9.332008362E-1,-1.818545163E-1,1.009771156E1
6.855754870E-1,-9.140582681E-1,-1.004985496E-1,1.004985523E1
6.876821010E-1,-8.949156404E-1,-4.785645381E-2,9.987641335E0
6.897887160E-1,-8.757730722E-1,3.349951655E-2,9.949356079E0
6.918953820E-1,-8.518448472E-1,7.657032460E-2,9.872786522E0
6.940019450E-1,-8.279166222E-1,1.148554832E-1,9.863214493E0
6.961086120E-1,-8.039883971E-1,1.483550072E-1,9.834501266E0
6.982152260E-1,-7.848458290E-1,1.674975902E-1,9.791430473E0
7.003218410E-1,-7.848458290E-1,1.962114573E-1,9.762716293E0
7.024284550E-1,-7.704889178E-1,1.962114573E-1,9.724431038E0
7.045350700E-1,-7.513462901E-1,2.153540403E-1,9.690931320E0
7.066416840E-1,-7.322037220E-1,2.153540403E-1,9.667003632E0
7.087482990E-1,-7.130611539E-1,2.105683982E-1,9.657432556E0
7.108549660E-1,-6.795616150E-1,1.914258152E-1,9.643074989E0
7.129615800E-1,-6.652047038E-1,1.818545163E-1,9.633503914E0
7.150681950E-1,-6.364908218E-1,1.627119333E-1,9.614361763E0
7.171748090E-1,-6.125625968E-1,1.292124242E-1,9.600004196E0
7.192814760E-1,-6.221339107E-1,8.135596663E-2,9.585647583E0
7.213880910E-1,-6.221339107E-1,3.349951655E-2,9.590433121E0
7.234947050E-1,-6.412764788E-1,-3.828516230E-2,9.595218658E0
7.256013200E-1,-6.364908218E-1,-7.657032460E-2,9.595218658E0
7.277079870E-1,-6.699903607E-1,-1.052841991E-1,9.595218658E0
7.298146010E-1,-6.987041831E-1,-1.770688742E-1,9.619147301E0
7.319212160E-1,-7.417750359E-1,-2.344966233E-1,9.628718376E0
7.340278300E-1,-7.752745152E-1,-2.727817893E-1,9.671789169E0
7.361344450E-1,-7.992027402E-1,-3.206382394E-1,9.724431038E0
7.382410590E-1,-8.422735929E-1,-3.684946895E-1,9.729216576E0
7.403477260E-1,-8.709874153E-1,-4.019941986E-1,9.762716293E0
7.424543410E-1,-9.140582681E-1,-4.259224236E-1,9.801001549E0
7.445609550E-1,-9.332008362E-1,-4.546363056E-1,9.834501266E0
7.466675700E-1,-9.714859724E-1,-4.689932466E-1,9.887143135E0
7.487741840E-1,-9.858429432E-1,-4.977070987E-1,9.949356079E0
7.508807990E-1,-1.014556766E0,-5.168496966E-1,9.968499184E0
7.529874140E-1,-1.024128079E0,-5.216353536E-1,1.000199890E1
7.550940800E-1,-1.043270707E0,-5.359922647E-1,1.002592659E1
7.572006950E-1,-1.057627559E0,-5.647061467E-1,1.007378292E1
7.593073090E-1,-1.057627559E0,-5.838487148E-1,1.006421185E1
7.614139240E-1,-1.071984529E0,-5.742774606E-1,1.008814049E1
7.635205910E-1,-1.076770186E0,-5.790630579E-1,1.007378292E1
7.656272050E-1,-1.071984529E0,-5.934200287E-1,1.006421185E1
7.677338200E-1,-1.086341500E0,-5.647061467E-1,1.004506969E1
7.698404340E-1,-1.076770186E0,-5.647061467E-1,1.003549862E1
7.719470490E-1,-1.076770186E0,-5.407779217E-1,1.000199890E1
7.740537160E-1,-1.062413216E0,-5.312066078E-1,9.992427826E0
7.761603300E-1,-1.048056364E0,-5.024927258E-1,9.987641335E0
7.782669450E-1,-1.038485050E0,-4.642075896E-1,9.973284721E0
7.803735590E-1,-1.019342422E0,-4.450650215E-1,9.978070259E0
7.824801740E-1,-9.858429432E-1,-4.498506486E-1,9.949356079E0
7.845867890E-1,-9.475577474E-1,-4.402793646E-1,9.949356079E0
7.866934550E-1,-9.523434043E-1,-4.259224236E-1,9.958928108E0
7.888000700E-1,-9.475577474E-1,-4.163511395E-1,9.963713646E0
7.909066840E-1,-9.092726111E-1,-4.067798555E-1,9.944570541E0
7.930132990E-1,-9.092726111E-1,-3.876372576E-1,9.958928108E0
7.951199140E-1,-8.757730722E-1,-3.780659735E-1,9.949356079E0
7.972265280E-1,-8.901300430E-1,-3.780659735E-1,9.958928108E0
7.993331950E-1,-8.757730722E-1,-3.732803464E-1,9.949356079E0
8.014398090E-1,-8.566305041E-1,-3.445664644E-1,9.958928108E0
8.035464240E-1,-8.566305041E-1,-3.254238665E-1,9.944570541E0
8.056530390E-1,-8.566305041E-1,-3.014956415E-1,9.915857315E0
8.077596530E-1,-8.327022791E-1,-2.632105052E-1,9.901499748E0
8.098662680E-1,-8.231309652E-1,-2.632105052E-1,9.877572060E0
8.119729340E-1,-8.135597110E-1,-2.392822653E-1,9.872786522E0
8.140795490E-1,-8.183453679E-1,-2.344966233E-1,9.906285286E0
8.161861640E-1,-8.135597110E-1,-2.249253243E-1,9.872786522E0
8.182927780E-1,-8.279166222E-1,-1.962114573E-1,9.872786522E0
8.203993930E-1,-8.135597110E-1,-1.674975902E-1,9.872786522E0
8.225060590E-1,-8.183453679E-1,-1.674975902E-1,9.872786522E0
8.246126740E-1,-8.231309652E-1,-1.579262912E-1,9.863214493E0
8.267192890E-1,-8.327022791E-1,-1.674975902E-1,9.848857880E0
8.288259030E-1,-8.327022791E-1,-1.387837082E-1,9.834501266E0
8.309325700E-1,-8.327022791E-1,-1.579262912E-1,9.820143700E0
8.330391320E-1,-8.374879360E-1,-1.627119333E-1,9.801001549E0
8.351457990E-1,-8.614161611E-1,-1.770688742E-1,9.772287369E0
8.372524140E-1,-8.566305041E-1,-1.962114573E-1,9.767501831E0
8.393590280E-1,-8.901300430E-1,-1.962114573E-1,9.767501831E0
8.414656430E-1,-9.236295223E-1,-2.009970993E-1,9.738788605E0
8.435722570E-1,-9.379864931E-1,-2.153540403E-1,9.724431038E0
8.456789240E-1,-9.523434043E-1,-2.249253243E-1,9.734002113E0
8.477855390E-1,-9.475577474E-1,-2.344966233E-1,9.743574142E0
8.498921530E-1,-9.714859724E-1,-2.392822653E-1,9.743574142E0
8.519987680E-1,-9.667003751E-1,-2.392822653E-1,9.724431038E0
8.541053820E-1,-9.954141974E-1,-2.488535494E-1,9.738788605E0
8.562120490E-1,-1.000199914E0,-2.632105052E-1,9.753145218E0
8.583186640E-1,-1.009771109E0,-2.727817893E-1,9.767501831E0
8.604252780E-1,-1.048056364E0,-2.632105052E-1,9.767501831E0
8.625318930E-1,-1.062413216E0,-2.584248483E-1,9.777072906E0
8.646385070E-1,-1.071984529E0,-2.488535494E-1,9.786644936E0
8.667451740E-1,-1.100698471E0,-2.297109663E-1,9.805787086E0
8.688517890E-1,-1.129412293E0,-2.440679073E-1,9.815358162E0
8.709584030E-1,-1.153340459E0,-2.584248483E-1,9.820143700E0
8.730650180E-1,-1.182054400E0,-2.488535494E-1,9.820143700E0
8.751716320E-1,-1.215553880E0,-2.536391914E-1,9.810572624E0
8.772782990E-1,-1.229910851E0,-2.632105052E-1,9.815358162E0
8.793849140E-1,-1.249053478E0,-2.775674164E-1,9.781859398E0
8.814915280E-1,-1.258624673E0,-2.775674164E-1,9.796216011E0
8.835981430E-1,-1.287338614E0,-3.014956415E-1,9.762716293E0
8.857047570E-1,-1.296909928E0,-2.967100143E-1,9.734002113E0
8.878114240E-1,-1.301695466E0,-2.967100143E-1,9.710074425E0
8.899180390E-1,-1.311266780E0,-2.919243574E-1,9.676574707E0
8.920246010E-1,-1.292124271E0,-2.871387303E-1,9.643074989E0
8.941312680E-1,-1.296909928E0,-2.727817893E-1,9.614361763E0
8.962378820E-1,-1.287338614E0,-2.632105052E-1,9.576076508E0
8.983444970E-1,-1.287338614E0,-2.201396823E-1,9.542576790E0
9.004511120E-1,-1.277767301E0,-2.009970993E-1,9.509077072E0
9.025577260E-1,-1.258624673E0,-1.770688742E-1,9.499505997E0
9.046643930E-1,-1.225125194E0,-1.244267747E-1,9.451649666E0
9.067710070E-1,-1.196411371E0,-7.657032460E-2,9.427721024E0
9.088776220E-1,-1.172483087E0,-2.871387079E-2,9.418149948E0
9.109842370E-1,-1.143769264E0,3.349951655E-2,9.389435768E0
9.130908510E-1,-1.105484009E0,8.614161611E-2,9.389435768E0
9.151975180E-1,-1.091127157E0,1.100698411E-1,9.375079155E0
9.173041320E-1,-1.076770186E0,1.196411327E-1,9.375079155E0
9.194107470E-1,-1.062413216E0,1.435693651E-1,9.389435768E0
9.215173620E-1,-1.062413216E0,1.866401732E-1,9.408578873E0
9.236239760E-1,-1.067198873E0,2.057827413E-1,9.403793335E0
9.257306430E-1,-1.062413216E0,2.009970993E-1,9.427721024E0
9.278372570E-1,-1.057627559E0,2.249253243E-1,9.432506561E0
9.299438720E-1,-1.048056364E0,2.249253243E-1,9.437292099E0
9.320504870E-1,-1.052842021E0,2.249253243E-1,9.461220741E0
9.341571010E-1,-1.043270707E0,2.344966233E-1,9.475577354E0
9.362637160E-1,-1.033699393E0,2.249253243E-1,9.485149384E0
9.383703820E-1,-1.019342422E0,2.344966233E-1,9.489934921E0
9.404769450E-1,-1.014556766E0,2.249253243E-1,9.504291534E0
9.425836120E-1,-1.009771109E0,2.105683982E-1,9.499505997E0
9.446902260E-1,-1.014556766E0,1.962114573E-1,9.513862610E0
9.467968410E-1,-1.038485050E0,1.866401732E-1,9.561718941E0
9.489034550E-1,-1.067198873E0,1.722832322E-1,9.561718941E0
9.510101220E-1,-1.086341500E0,1.483550072E-1,9.571290970E0
9.531167370E-1,-1.105484009E0,1.387837082E-1,9.556933403E0
9.552233510E-1,-1.138983607E0,1.387837082E-1,9.556933403E0
9.573300180E-1,-1.158126116E0,1.387837082E-1,9.552147865E0
9.594366320E-1,-1.205982566E0,1.052841991E-1,9.556933403E0
9.615432470E-1,-1.234696507E0,9.571290761E-2,9.561718941E0
9.636498620E-1,-1.263410330E0,6.221338734E-2,9.595218658E0
9.657564760E-1,-1.296909928E0,4.785645381E-2,9.609575272E0
9.678630910E-1,-1.325623751E0,2.871387079E-2,9.628718376E0
9.699697570E-1,-1.339980721E0,5.264209956E-2,9.671789169E0
9.720763200E-1,-1.383051515E0,2.392822690E-2,9.700503349E0
9.741829870E-1,-1.421336651E0,1.914258115E-2,9.729216576E0
9.762896010E-1,-1.440479279E0,1.914258115E-2,9.767501831E0
9.783962160E-1,-1.454836130E0,2.871387079E-2,9.781859398E0
9.805028300E-1,-1.454836130E0,2.871387079E-2,9.810572624E0
9.826094970E-1,-1.483550072E0,2.392822690E-2,9.829715729E0
9.847160590E-1,-1.450050473E0,4.785645381E-2,9.848857880E0
9.868227260E-1,-1.483550072E0,5.264209956E-2,9.853643417E0
9.889293410E-1,-1.473978758E0,5.264209956E-2,9.853643417E0
9.910359550E-1,-1.469193101E0,5.742774159E-2,9.829715729E0
9.931425700E-1,-1.473978758E0,6.221338734E-2,9.824930191E0
9.952491840E-1,-1.469193101E0,4.307080805E-2,9.801001549E0
9.973558510E-1,-1.459621787E0,4.307080805E-2,9.801001549E0
9.994624660E-1,-1.450050473E0,3.828516230E-2,9.757930756E0
1.001569080E0,-1.406979680E0,4.307080805E-2,9.710074425E0
1.003675695E0,-1.344766378E0,5.264209956E-2,9.662218094E0
1.005782309E0,-1.282552958E0,7.178468257E-2,9.623932838E0
1.007888976E0,-1.220339537E0,1.052841991E-1,9.590433121E0
1.009995591E0,-1.153340459E0,1.244267747E-1,9.580862045E0
1.012102205E0,-1.076770186E0,1.579262912E-1,9.585647583E0
1.014208820E0,-1.019342422E0,1.531406492E-1,9.566504478E0
1.016315434E0,-9.619147182E-1,1.722832322E-1,9.595218658E0
1.018422101E0,-9.236295223E-1,1.914258152E-1,9.590433121E0
1.020528716E0,-9.092726111E-1,1.962114573E-1,9.590433121E0
1.022635330E0,-8.853443861E-1,1.914258152E-1,9.643074989E0
1.024741945E0,-8.757730722E-1,1.674975902E-1,9.647860527E0
1.026848559E0,-8.853443861E-1,1.674975902E-1,9.667003632E0
1.028955174E0,-8.757730722E-1,1.627119333E-1,9.690931320E0
1.031061841E0,-8.805587292E-1,1.483550072E-1,9.734002113E0
1.033168455E0,-9.044869542E-1,1.292124242E-1,9.753145218E0
1.035275070E0,-1.009771109E0,5.264209956E-2,9.772287369E0
1.037381684E0,-1.076770186E0,-1.435693540E-2,9.710074425E0
1.039488299E0,-1.134197950E0,-7.178468257E-2,9.681360245E0
1.041594966E0,-1.167697430E0,-1.052841991E-1,9.671789169E0
1.043701528E0,-1.220339537E0,-1.244267747E-1,9.714859962E0
1.045808195E0,-1.249053478E0,-1.292124242E-1,9.734002113E0
1.047914809E0,-1.292124271E0,-1.196411327E-1,9.791430473E0
1.050021424E0,-1.339980721E0,-1.148554832E-1,9.877572060E0
1.052128039E0,-1.368694544E0,-1.244267747E-1,9.954142570E0
1.054234705E0,-1.359123230E0,-9.571290761E-2,1.000678444E1
1.056341320E0,-1.373480201E0,-8.135596663E-2,1.010249710E1
1.058447934E0,-1.363908887E0,-5.264209956E-2,1.014078236E1
1.060554549E0,-1.339980721E0,-4.785645381E-2,1.021735287E1
1.062661164E0,-1.349551916E0,-2.871387079E-2,1.027956581E1
1.064767778E0,-1.359123230E0,-3.349951655E-2,1.038006496E1
1.066874393E0,-1.363908887E0,-5.742774159E-2,1.042792130E1
1.068981059E0,-1.354337573E0,-7.178468257E-2,1.047577763E1
1.071087674E0,-1.359123230E0,-9.092725813E-2,1.048056316E1
1.073194289E0,-1.363908887E0,-1.435693651E-1,1.044706345E1
1.075300903E0,-1.392622828E0,-1.962114573E-1,1.040877819E1
1.077407518E0,-1.368694544E0,-2.297109663E-1,1.028913784E1
1.079514184E0,-1.335195065E0,-2.823530734E-1,1.016471100E1
1.081620799E0,-1.244267821E0,-3.972085714E-1,9.882357597E0
1.083727414E0,-1.119840980E0,-5.072783828E-1,9.145368576E0
1.085834028E0,-1.162911773E0,-5.120640397E-1,9.724431038E0
1.087940643E0,-1.182054400E0,-5.838487148E-1,9.576076508E0
1.090047309E0,-1.167697430E0,-5.934200287E-1,9.308079720E0
1.092153924E0,-1.148554921E0,-5.886343718E-1,9.226723671E0
1.094260539E0,-1.119840980E0,-5.790630579E-1,9.044869423E0
1.096367153E0,-1.110269666E0,-5.407779217E-1,8.977870941E0
1.098473768E0,-1.062413216E0,-5.407779217E-1,8.877371788E0
1.100580434E0,-1.033699393E0,-4.977070987E-1,8.762516975E0
1.102687049E0,-9.619147182E-1,-4.785645306E-1,8.628518105E0
1.104793664E0,-9.427721500E-1,-4.163511395E-1,8.518448830E0
1.106900278E0,-8.997012973E-1,-3.732803464E-1,8.432307243E0
1.109006893E0,-9.092726111E-1,-3.014956415E-1,8.413164139E0
1.111113507E0,-9.379864931E-1,-2.679961324E-1,8.504091263E0
1.113220174E0,-1.009771109E0,-2.057827413E-1,8.628518105E0
1.115326789E0,-1.062413216E0,-1.531406492E-1,8.762516975E0
1.117433403E0,-1.129412293E0,-1.244267747E-1,8.939585686E0
1.119540018E0,-1.148554921E0,-9.092725813E-2,9.073583603E0
1.121646684E0,-1.148554921E0,-4.785645381E-2,9.164510727E0
1.123753247E0,-1.138983607E0,4.785645287E-3,9.212367058E0
1.125859862E0,-1.110269666E0,2.871387079E-2,9.255437851E0
1.127966528E0,-1.052842021E0,3.349951655E-2,9.284152031E0
1.130073143E0,-1.000199914E0,3.828516230E-2,9.379864693E0
1.132179757E0,-9.619147182E-1,4.785645381E-2,9.427721024E0
1.134286372E0,-9.044869542E-1,3.349951655E-2,9.499505997E0
1.136393039E0,-8.374879360E-1,3.828516230E-2,9.518648148E0
1.138499653E0,-7.561319470E-1,4.307080805E-2,9.561718941E0
1.140606268E0,-6.987041831E-1,1.435693540E-2,9.566504478E0
1.142712882E0,-6.125625968E-1,0.000000000E0,9.556933403E0
1.144819497E0,-5.216353536E-1,0.000000000E0,9.556933403E0
1.146926112E0,-4.211367965E-1,3.828516230E-2,9.580862045E0
1.149032726E0,-3.254238665E-1,3.349951655E-2,9.537791252E0
1.151139393E0,-2.105683982E-1,5.742774159E-2,9.566504478E0
1.153246007E0,-1.339980662E-1,7.657032460E-2,9.561718941E0
1.155352622E0,-6.699903309E-2,8.614161611E-2,9.566504478E0
1.157459237E0,-1.914258115E-2,8.614161611E-2,9.595218658E0
1.159565851E0,3.349951655E-2,9.092725813E-2,9.533005714E0
1.161672466E0,6.699903309E-2,7.657032460E-2,9.499505997E0
1.163779132E0,1.004985496E-1,4.307080805E-2,9.513862610E0
1.165885747E0,1.004985496E-1,4.785645287E-3,9.509077072E0
1.167992362E0,9.092725813E-2,-4.785645381E-2,9.595218658E0
1.170098976E0,9.092725813E-2,-8.135596663E-2,9.623932838E0
1.172205591E0,8.135596663E-2,-1.435693651E-1,9.585647583E0
1.174312257E0,5.264209956E-2,-1.866401732E-1,9.580862045E0
1.176418872E0,-9.571290575E-3,-2.201396823E-1,9.552147865E0
1.178525487E0,-7.178468257E-2,-3.014956415E-1,9.494720459E0
1.180632101E0,-1.579262912E-1,-3.876372576E-1,9.456435204E0
1.182738716E0,-2.297109663E-1,-4.546363056E-1,9.408578873E0
1.184845382E0,-3.110669553E-1,-5.072783828E-1,9.346364975E0
1.186951997E0,-3.828516304E-1,-5.407779217E-1,9.269794464E0
1.189058612E0,-4.211367965E-1,-6.125625968E-1,9.183652878E0
1.191165226E0,-5.024927258E-1,-6.843472719E-1,9.111868858E0
1.193271841E0,-4.929214716E-1,-7.322037220E-1,9.097511292E0
1.195378507E0,-5.168496966E-1,-7.704889178E-1,9.087940216E0
1.197485122E0,-5.264210105E-1,-7.944171429E-1,9.054440498E0
1.199591737E0,-4.689932466E-1,-8.087740541E-1,9.030512810E0
1.201698351E0,-4.307080805E-1,-8.135597110E-1,9.044869423E0
1.203804966E0,-3.493520916E-1,-7.800601721E-1,9.001798630E0
1.205911580E0,-2.823530734E-1,-7.226324677E-1,8.896514893E0
1.208018195E0,-1.722832322E-1,-6.460621357E-1,8.786444664E0
1.210124809E0,-8.135596663E-2,-5.647061467E-1,8.642875671E0
1.212231476E0,5.264209956E-2,-4.642075896E-1,8.523234367E0
1.214338091E0,1.435693651E-1,-3.493520916E-1,8.461020470E0
1.216444705E0,2.392822653E-1,-2.249253243E-1,8.437092781E0
1.218551320E0,3.684946895E-1,-1.052841991E-1,8.403593063E0
1.220657934E0,4.642075896E-1,3.349951655E-2,8.370093346E0
1.222764549E0,5.790630579E-1,1.722832322E-1,8.422736168E0
1.224871216E0,6.652047038E-1,3.062812984E-1,8.494520187E0
1.226977830E0,7.465606928E-1,4.833501875E-1,8.542376518E0
1.229084445E0,7.848458290E-1,6.412764788E-1,8.590232849E0
1.231191059E0,8.183453679E-1,7.800601721E-1,8.618947029E0
1.233297674E0,8.614161611E-1,9.475577474E-1,8.719446182E0
1.235404341E0,7.992027402E-1,1.105484009E0,8.829515457E0
1.237510955E0,7.704889178E-1,1.287338614E0,8.901300430E0
1.239617570E0,7.609176040E-1,1.464407444E0,8.992227554E0
1.241724184E0,7.034898400E-1,1.631905079E0,9.097511292E0
1.243830851E0,5.886343718E-1,1.785045743E0,9.255437851E0
1.245937466E0,5.072783828E-1,1.962114573E0,9.422935486E0
1.248044080E0,4.211367965E-1,2.105684042E0,9.552147865E0
1.250150695E0,3.349951804E-1,2.239681959E0,9.681360245E0
1.252257309E0,2.679961324E-1,2.354537487E0,9.911071777E0
1.254363976E0,2.105683982E-1,2.431107759E0,1.008335495E1
1.256470591E0,2.249253243E-1,2.469393015E0,1.012642574E1
1.258577205E0,2.440679073E-1,2.426322222E0,1.012164021E1
1.260683820E0,2.632105052E-1,2.402393818E0,1.024606609E1
1.262790434E0,2.488535494E-1,2.402393818E0,1.042313576E1
1.264897049E0,2.536391914E-1,2.416750908E0,1.053799057E1
1.267003716E0,2.488535494E-1,2.407179594E0,1.058584690E1
1.269110330E0,2.392822653E-1,2.349751949E0,1.061934662E1
1.271216945E0,2.440679073E-1,2.282752752E0,1.062891865E1
1.273323559E0,2.249253243E-1,2.220539331E0,1.059541893E1
1.275430174E0,2.105683982E-1,2.129612207E0,1.049013424E1
1.277536789E0,2.009970993E-1,2.048256159E0,1.035135078E1
1.279643403E0,1.722832322E-1,1.971685886E0,1.019820976E1
1.281750070E0,1.674975902E-1,1.895115495E0,1.004985523E1
1.283856684E0,1.818545163E-1,1.813759565E0,9.915857315E0
1.285963299E0,2.153540403E-1,1.761117458E0,9.753145218E0
1.288069914E0,2.344966233E-1,1.660618901E0,9.590433121E0
1.290176528E0,2.679961324E-1,1.555334687E0,9.403793335E0
1.292283195E0,3.397808075E-1,1.483550072E0,9.217152596E0
1.294389809E0,4.115654826E-1,1.426122308E0,9.035298347E0
1.296496424E0,4.785645306E-1,1.354337573E0,8.839086533E0
1.298603039E0,5.551348329E-1,1.301695466E0,8.642875671E0
1.300709653E0,6.029912829E-1,1.258624673E0,8.417949677E0
1.302816320E0,6.364908218E-1,1.205982566E0,8.221738815E0
1.304922934E0,6.891329288E-1,1.148554921E0,8.044670105E0
1.307029549E0,7.226324677E-1,1.100698471E0,7.944170952E0
1.309136164E0,7.609176040E-1,1.067198873E0,7.901100159E0
1.311242778E0,8.183453679E-1,1.009771109E0,7.920242786E0
1.313349393E0,9.044869542E-1,9.571290612E-1,8.015955925E0
1.315456059E0,1.004985452E0,9.092726111E-1,8.159524918E0
1.317562674E0,1.115055323E0,8.805587292E-1,8.374878883E0
1.319669289E0,1.201196909E0,8.422735929E-1,8.618947029E0
1.321775903E0,1.249053478E0,8.087740541E-1,8.920442581E0
1.323882518E0,1.249053478E0,7.848458290E-1,9.221938133E0
1.325989132E0,1.277767301E0,7.465606928E-1,9.556933403E0
1.328095747E0,1.282552958E0,7.274180651E-1,9.920642853E0
1.330202414E0,1.268195987E0,6.891329288E-1,1.026999474E1
1.332308976E0,1.282552958E0,6.412764788E-1,1.065284634E1
1.334415643E0,1.258624673E0,6.029912829E-1,1.103569794E1
1.336522257E0,1.253839016E0,5.886343718E-1,1.144726372E1
1.338628924E0,1.225125194E0,5.599204898E-1,1.178225899E1
1.340735539E0,1.201196909E0,5.599204898E-1,1.212203979E1
1.342842153E0,1.158126116E0,5.407779217E-1,1.245224857E1
1.344948768E0,1.100698471E0,5.599204898E-1,1.274417305E1
1.347055382E0,1.028913736E0,5.694918036E-1,1.298345566E1
1.349161997E0,9.475577474E-1,6.029912829E-1,1.317966747E1
1.351268664E0,8.566305041E-1,6.795616150E-1,1.330409431E1
1.353375278E0,7.082754970E-1,7.322037220E-1,1.339502144E1
1.355481893E0,6.221339107E-1,8.087740541E-1,1.347637749E1
1.357588507E0,5.072783828E-1,8.757730722E-1,1.344766331E1
1.359695122E0,5.024927258E-1,9.092726111E-1,1.337109280E1
1.361801737E0,5.120640397E-1,9.810572863E-1,1.326580906E1
1.363908403E0,4.977070987E-1,1.014556766E0,1.308395386E1
1.366015018E0,4.833501875E-1,1.009771109E0,1.284945774E1
1.368121632E0,4.881358147E-1,9.714859724E-1,1.261017513E1
1.370228247E0,4.929214716E-1,9.379864931E-1,1.228475189E1
1.372334862E0,5.312066078E-1,8.518448472E-1,1.199282742E1
1.374441476E0,5.168496966E-1,7.704889178E-1,1.167697430E1
1.376548143E0,4.929214716E-1,6.891329288E-1,1.133719349E1
1.378654757E0,4.737788737E-1,6.173482537E-1,1.098305607E1
1.380761372E0,4.115654826E-1,5.790630579E-1,1.065763187E1
1.382867987E0,3.206382394E-1,5.359922647E-1,1.036092186E1
1.384974601E0,2.201396823E-1,5.168496966E-1,1.004028416E1
1.387081216E0,9.571290761E-2,5.312066078E-1,9.748359680E0
1.389187830E0,0.000000000E0,5.455635786E-1,9.470791817E0
1.391294445E0,-1.100698411E-1,5.838487148E-1,9.212367058E0
1.393401112E0,-2.153540403E-1,6.125625968E-1,8.992227554E0
1.395507726E0,-3.349951804E-1,6.508477330E-1,8.819944382E0
1.397614341E0,-4.689932466E-1,6.987041831E-1,8.652446747E0
1.399720955E0,-5.886343718E-1,7.082754970E-1,8.551948547E0
1.401827622E0,-6.987041831E-1,7.513462901E-1,8.475378036E0
1.403934237E0,-8.183453679E-1,7.800601721E-1,8.456234932E0
1.406040851E0,-9.044869542E-1,8.087740541E-1,8.465806961E0
1.408147466E0,-9.667003751E-1,8.231309652E-1,8.446663857E0
1.410254080E0,-1.009771109E0,8.470591903E-1,8.504091263E0
1.412360747E0,-1.043270707E0,8.662018180E-1,8.566305161E0
1.414467309E0,-1.043270707E0,8.805587292E-1,8.614161491E0
1.416573976E0,-1.062413216E0,9.044869542E-1,8.628518105E0
1.418680591E0,-1.057627559E0,8.949156404E-1,8.671588898E0
1.420787205E0,-1.100698471E0,8.757730722E-1,8.705088615E0
1.422893872E0,-1.115055323E0,8.614161611E-1,8.709874153E0
1.425000434E0,-1.119840980E0,8.470591903E-1,8.671588898E0
1.427107101E0,-1.067198873E0,7.848458290E-1,8.470592499E0
1.429213716E0,-1.052842021E0,7.752745152E-1,8.599804878E0
1.431320330E0,-1.215553880E0,8.901300430E-1,8.977870941E0
1.433426945E0,-1.296909928E0,8.949156404E-1,8.886942863E0
1.435533559E0,-1.277767301E0,8.805587292E-1,8.733802795E0
1.437640226E0,-1.229910851E0,8.470591903E-1,8.800801277E0
1.439746841E0,-1.162911773E0,7.944171429E-1,8.843872070E0
1.441853455E0,-1.067198873E0,7.465606928E-1,8.848658562E0
1.443960070E0,-9.571290612E-1,7.226324677E-1,8.786444664E0
1.446066684E0,-8.949156404E-1,6.987041831E-1,8.772088051E0
1.448173299E0,-8.422735929E-1,6.795616150E-1,8.796015739E0
1.450279914E0,-7.896314859E-1,6.412764788E-1,8.791230202E0
1.452386528E0,-7.322037220E-1,6.221339107E-1,8.705088615E0
1.454493195E0,-6.891329288E-1,6.460621357E-1,8.628518105E0
1.456599809E0,-6.604190469E-1,6.987041831E-1,8.743373871E0
1.458706424E0,-6.891329288E-1,7.657032609E-1,8.781659126E0
1.460813039E0,-6.987041831E-1,8.231309652E-1,8.853444099E0
1.462919653E0,-6.699903607E-1,8.470591903E-1,8.930013657E0
1.465026320E0,-6.317051649E-1,8.949156404E-1,9.011369705E0
1.467132934E0,-4.977070987E-1,8.757730722E-1,8.848658562E0
1.469239549E0,-4.498506486E-1,8.374879360E-1,9.150154114E0
1.471346164E0,-4.546363056E-1,8.901300430E-1,9.504291534E0
1.473452778E0,-4.163511395E-1,9.044869542E-1,9.547362328E0
1.475559445E0,-3.684946895E-1,8.805587292E-1,9.580862045E0
1.477666059E0,-3.445664644E-1,8.231309652E-1,9.690931320E0
1.479772674E0,-3.158525825E-1,7.561319470E-1,9.820143700E0
1.481879289E0,-2.871387303E-1,6.604190469E-1,9.915857315E0
1.483985903E0,-2.344966233E-1,5.742774606E-1,9.973284721E0
1.486092518E0,-2.344966233E-1,4.737788737E-1,1.002114105E1
1.488199184E0,-2.344966233E-1,3.732803464E-1,1.006899738E1
1.490305747E0,-2.392822653E-1,2.727817893E-1,1.013599682E1
1.492412414E0,-2.584248483E-1,1.627119333E-1,1.017428207E1
1.494519028E0,-2.632105052E-1,8.135596663E-2,1.027478027E1
1.496625643E0,-2.392822653E-1,9.571290575E-3,1.036570740E1
1.498732257E0,-2.536391914E-1,-6.699903309E-2,1.048534870E1
1.500838924E0,-2.488535494E-1,-1.292124242E-1,1.059063339E1
1.502945539E0,-2.297109663E-1,-2.153540403E-1,1.060977554E1
1.505052153E0,-2.584248483E-1,-3.206382394E-1,1.067198944E1
1.507158768E0,-2.823530734E-1,-4.737788737E-1,1.069591713E1
1.509265382E0,-3.541377485E-1,-6.460621357E-1,1.064327526E1
1.511371997E0,-4.259224236E-1,-8.279166222E-1,1.061934662E1
1.513478612E0,-4.929214716E-1,-1.000199914E0,1.055713367E1
1.515585278E0,-5.742774606E-1,-1.162911773E0,1.049970531E1
1.517691893E0,-6.364908218E-1,-1.292124271E0,1.039920712E1
1.519798507E0,-6.556333899E-1,-1.392622828E0,1.034177971E1
1.521905122E0,-6.747759581E-1,-1.445264935E0,1.023649502E1
1.524011737E0,-6.460621357E-1,-1.488335729E0,1.016471100E1
1.526118403E0,-6.077769399E-1,-1.512263894E0,1.010728264E1
1.528225018E0,-5.934200287E-1,-1.502692580E0,1.007856941E1
1.530331632E0,-5.647061467E-1,-1.488335729E0,1.003071213E1
1.532438247E0,-5.359922647E-1,-1.459621787E0,9.997213364E0
1.534544862E0,-5.216353536E-1,-1.416550994E0,9.958928108E0
1.536651476E0,-4.977070987E-1,-1.363908887E0,1.001156998E1
1.538758143E0,-4.929214716E-1,-1.287338614E0,1.001156998E1
1.540864757E0,-5.024927258E-1,-1.234696507E0,1.004985523E1
1.542971372E0,-4.977070987E-1,-1.129412293E0,1.007378292E1
1.545077987E0,-4.642075896E-1,-1.024128079E0,1.010249710E1
1.547184653E0,-4.354937077E-1,-9.188438654E-1,1.009292603E1
1.549291268E0,-3.924229145E-1,-7.992027402E-1,1.009771156E1
1.551397830E0,-3.732803464E-1,-6.843472719E-1,1.008335495E1
1.553504497E0,-3.445664644E-1,-5.742774606E-1,1.006421185E1
1.555611112E0,-3.014956415E-1,-4.642075896E-1,9.997213364E0
1.557717726E0,-2.584248483E-1,-3.493520916E-1,9.973284721E0
1.559824341E0,-2.009970993E-1,-2.488535494E-1,9.930213928E0
1.561931007E0,-1.579262912E-1,-1.770688742E-1,9.949356079E0
1.564037570E0,-1.339980662E-1,-1.148554832E-1,9.901499748E0
1.566144237E0,-8.135596663E-2,-8.614161611E-2,9.887143135E0
1.568250851E0,-1.914258115E-2,-3.349951655E-2,9.868000984E0
1.570357466E0,3.349951655E-2,-4.307080805E-2,9.853643417E0
1.572464080E0,4.785645381E-2,-5.742774159E-2,9.844072342E0
1.574570695E0,9.571290761E-2,-1.148554832E-1,9.805787086E0
1.576677362E0,1.292124242E-1,-2.009970993E-1,9.844072342E0
1.578783976E0,1.674975902E-1,-3.110669553E-1,9.858428955E0
1.580890591E0,2.057827413E-1,-4.642075896E-1,9.891928673E0
1.582997205E0,2.488535494E-1,-6.269195080E-1,9.915857315E0
1.585103820E0,2.679961324E-1,-8.087740541E-1,9.982855797E0
1.587210434E0,2.967100143E-1,-1.000199914E0,1.004985523E1
1.589317101E0,3.110669553E-1,-1.220339537E0,1.013121128E1
1.591423716E0,3.397808075E-1,-1.454836130E0,1.021735287E1
1.593530330E0,3.780659735E-1,-1.694118381E0,1.030349445E1
1.595636945E0,3.924229145E-1,-1.938186288E0,1.041356373E1
1.597743612E0,4.259224236E-1,-2.187039852E0,1.054756260E1
1.599850226E0,4.450650215E-1,-2.402393818E0,1.064806080E1
1.601956841E0,4.689932466E-1,-2.627319336E0,1.073420238E1
1.604063455E0,4.881358147E-1,-2.828316450E0,1.082512951E1
1.606170070E0,5.216353536E-1,-3.010170937E0,1.092084217E1
1.608276684E0,5.886343718E-1,-3.158525944E0,1.103091240E1
1.610383299E0,6.364908218E-1,-3.268595695E0,1.110748291E1
1.612489966E0,7.417750359E-1,-3.354737282E0,1.121276665E1
1.614596580E0,8.135597110E-1,-3.416950703E0,1.131326580E1
1.616703195E0,8.853443861E-1,-3.426522017E0,1.143290615E1
1.618809809E0,9.667003751E-1,-3.436093330E0,1.153340530E1
1.620916424E0,1.004985452E0,-3.359523058E0,1.164347458E1
1.623023091E0,1.038485050E0,-3.292523861E0,1.178225899E1
1.625129705E0,1.052842021E0,-3.182454109E0,1.185882950E1
1.627236320E0,1.043270707E0,-3.077169895E0,1.192104244E1
1.629342934E0,1.019342422E0,-2.928814888E0,1.193539906E1
1.631449549E0,1.014556766E0,-2.785245657E0,1.193539906E1
1.633556164E0,9.906286001E-1,-2.622533560E0,1.188754272E1
1.635662830E0,9.667003751E-1,-2.459821701E0,1.182054424E1
1.637769445E0,9.858429432E-1,-2.297109842E0,1.173440266E1
1.639876059E0,1.014556766E0,-2.148754835E0,1.165783215E1
1.641982674E0,1.057627559E0,-1.986042738E0,1.153819084E1
1.644089289E0,1.105484009E0,-1.837687731E0,1.142333508E1
1.646195903E0,1.167697430E0,-1.694118381E0,1.127976608E1
1.648302570E0,1.239482164E0,-1.507478237E0,1.112662506E1
1.650409132E0,1.316052437E0,-1.378265858E0,1.101655579E1
1.652515799E0,1.421336651E0,-1.239482164E0,1.088734341E1
1.654622414E0,1.507478237E0,-1.081555843E0,1.075813103E1
1.656729028E0,1.598405480E0,-9.475577474E-1,1.062413216E1
1.658835695E0,1.670190215E0,-8.135597110E-1,1.050449181E1
1.660942309E0,1.732403636E0,-7.034898400E-1,1.039920712E1
1.663048924E0,1.785045743E0,-6.125625968E-1,1.026520920E1
1.665155539E0,1.818545222E0,-5.694918036E-1,1.015992451E1
1.667262153E0,1.856830359E0,-5.312066078E-1,1.007378292E1
1.669368768E0,1.909472466E0,-5.072783828E-1,1.000678444E1
1.671475382E0,1.919043779E0,-5.024927258E-1,9.978070259E0
1.673582049E0,1.923829436E0,-4.977070987E-1,9.949356079E0
1.675688664E0,1.947757602E0,-5.120640397E-1,9.954142570E0
1.677795278E0,1.942971945E0,-4.929214716E-1,9.963713646E0
1.679901893E0,1.904686809E0,-4.929214716E-1,9.954142570E0
1.682008507E0,1.875972986E0,-4.689932466E-1,9.982855797E0
1.684115122E0,1.823330879E0,-4.211367965E-1,9.944570541E0
1.686221737E0,1.727617979E0,-3.684946895E-1,9.896714211E0
1.688328403E0,1.617548108E0,-3.302095234E-1,9.896714211E0
1.690435018E0,1.478764415E0,-2.919243574E-1,9.810572624E0
1.692541632E0,1.335195065E0,-2.919243574E-1,9.753145218E0
1.694648247E0,1.134197950E0,-2.967100143E-1,9.681360245E0
1.696754862E0,9.236295223E-1,-2.967100143E-1,9.628718376E0
1.698861476E0,7.417750359E-1,-3.062812984E-1,9.542576790E0
1.700968143E0,5.742774606E-1,-2.775674164E-1,9.456435204E0
1.703074757E0,4.115654826E-1,-2.488535494E-1,9.370293617E0
1.705181372E0,2.871387303E-1,-2.488535494E-1,9.241081238E0
1.707287987E0,1.770688742E-1,-2.153540403E-1,9.064012527E0
1.709394601E0,8.135596663E-2,-2.153540403E-1,8.867800713E0
1.711501268E0,-1.435693540E-2,-1.914258152E-1,8.671588898E0
1.713607882E0,-6.699903309E-2,-1.579262912E-1,8.489734650E0
1.715714497E0,-1.196411327E-1,-1.100698411E-1,8.293522835E0
1.717821112E0,-1.962114573E-1,-8.614161611E-2,8.135597229E0
1.719927726E0,-2.727817893E-1,-3.828516230E-2,7.896314621E0
1.722034341E0,-3.302095234E-1,4.785645287E-3,7.676175117E0
1.724140955E0,-3.828516304E-1,2.392822690E-2,7.503891945E0
1.726247622E0,-3.972085714E-1,8.614161611E-2,7.345965385E0
1.728354237E0,-3.780659735E-1,1.866401732E-1,7.293323517E0
1.730460851E0,-3.493520916E-1,2.536391914E-1,7.331608772E0
1.732567466E0,-3.014956415E-1,3.876372576E-1,7.384250641E0
1.734674080E0,-2.488535494E-1,5.168496966E-1,7.494320393E0
1.736780747E0,-1.387837082E-1,6.604190469E-1,7.613961697E0
1.738887362E0,-5.742774159E-2,7.992027402E-1,7.824530125E0
1.740993976E0,-4.785645287E-3,8.853443861E-1,8.039883614E0
1.743100591E0,6.221338734E-2,9.667003751E-1,8.207381248E0
1.745207205E0,1.962114573E-1,1.024128079E0,8.374878883E0
1.747313820E0,3.254238665E-1,1.048056364E0,8.547162056E0
1.749420434E0,4.594219327E-1,1.048056364E0,8.705088615E0
1.751527101E0,6.125625968E-1,1.057627559E0,8.853444099E0
1.753633716E0,7.465606928E-1,1.028913736E0,8.968298912E0
1.755740330E0,8.374879360E-1,1.000199914E0,9.107083321E0
1.757846945E0,9.236295223E-1,9.954141974E-1,9.221938133E0
1.759953612E0,1.052842021E0,1.004985452E0,9.303294182E0
1.762060226E0,1.124626637E0,9.906286001E-1,9.394221306E0
1.764166841E0,1.019342422E0,9.667003751E-1,9.504291534E0
1.766273455E0,7.178468108E-1,7.800601721E-1,9.934999466E0
1.768380070E0,4.019941986E-1,6.364908218E-1,1.057627583E1
1.770486684E0,7.657032460E-2,5.551348329E-1,1.103091240E1
1.772593299E0,-7.657032460E-2,6.029912829E-1,1.088255692E1
1.774699966E0,-7.657032460E-2,7.034898400E-1,1.019820976E1
1.776806580E0,-5.264209956E-2,7.034898400E-1,9.442078590E0
1.778913195E0,-1.866401732E-1,6.460621357E-1,8.901300430E0
1.781019809E0,-4.450650215E-1,5.120640397E-1,8.609375954E0
1.783126424E0,-5.934200287E-1,3.972085714E-1,8.528019905E0
1.785233039E0,-4.642075896E-1,3.397808075E-1,8.609375954E0
1.787339705E0,-3.397808075E-1,2.536391914E-1,8.815158844E0
1.789446320E0,-3.014956415E-1,7.657032460E-2,9.097511292E0
1.791552934E0,-2.871387303E-1,-6.699903309E-2,9.298508644E0
1.793659549E0,-3.302095234E-1,-2.344966233E-1,9.442078590E0
1.795766164E0,-4.163511395E-1,-3.972085714E-1,9.580862045E0
1.797872830E0,-5.168496966E-1,-5.886343718E-1,9.738788605E0
1.799979445E0,-6.364908218E-1,-7.800601721E-1,9.958928108E0
1.802086059E0,-7.322037220E-1,-9.571290612E-1,1.021256733E1
1.804192674E0,-8.327022791E-1,-1.148554921E0,1.047577763E1
1.806299289E0,-9.044869542E-1,-1.316052437E0,1.070070267E1
1.808405903E0,-9.954141974E-1,-1.464407444E0,1.087298584E1
1.810512570E0,-1.071984529E0,-1.588834286E0,1.102612686E1
1.812619184E0,-1.119840980E0,-1.674975872E0,1.114576817E1
1.814725799E0,-1.167697430E0,-1.746760488E0,1.123669529E1
1.816832414E0,-1.177268744E0,-1.794616938E0,1.136112213E1
1.818939028E0,-1.201196909E0,-1.823330879E0,1.143769264E1
1.821045695E0,-1.215553880E0,-1.808973908E0,1.154776192E1
1.823152309E0,-1.201196909E0,-1.780260086E0,1.162911797E1
1.825258924E0,-1.143769264E0,-1.722832322E0,1.167697430E1
1.827365539E0,-1.095912814E0,-1.636690736E0,1.172961617E1
1.829472153E0,-1.048056364E0,-1.545763373E0,1.178225899E1
1.831578768E0,-9.858429432E-1,-1.435693622E0,1.182532978E1
1.833685382E0,-9.140582681E-1,-1.311266780E0,1.186361504E1
1.835791997E0,-8.422735929E-1,-1.196411371E0,1.186840057E1
1.837898664E0,-7.944171429E-1,-1.081555843E0,1.183968639E1
1.840005278E0,-7.130611539E-1,-9.858429432E-1,1.181575775E1
1.842111893E0,-6.604190469E-1,-8.662018180E-1,1.177268696E1
1.844218507E0,-5.838487148E-1,-7.704889178E-1,1.174875927E1
1.846325122E0,-5.407779217E-1,-7.034898400E-1,1.170568848E1
1.848431737E0,-4.881358147E-1,-6.460621357E-1,1.165783215E1
1.850538403E0,-4.498506486E-1,-6.029912829E-1,1.162433243E1
1.852645018E0,-4.354937077E-1,-5.838487148E-1,1.156690502E1
1.854751632E0,-4.211367965E-1,-5.599204898E-1,1.152383423E1
1.856858247E0,-4.737788737E-1,-5.647061467E-1,1.149512005E1
1.858964862E0,-5.264210105E-1,-5.694918036E-1,1.147119141E1
1.861071476E0,-5.982056856E-1,-5.934200287E-1,1.143769264E1
1.863178091E0,-6.604190469E-1,-6.077769399E-1,1.141854954E1
1.865284757E0,-7.274180651E-1,-6.364908218E-1,1.138504982E1
1.867391372E0,-8.135597110E-1,-6.891329288E-1,1.136112213E1
1.869497987E0,-8.901300430E-1,-7.465606928E-1,1.133240795E1
1.871604601E0,-9.523434043E-1,-7.944171429E-1,1.128455162E1
1.873711268E0,-1.000199914E0,-8.518448472E-1,1.122712421E1
1.875817830E0,-1.076770186E0,-9.188438654E-1,1.116491032E1
1.877924497E0,-1.115055323E0,-9.619147182E-1,1.108833981E1
1.880031112E0,-1.153340459E0,-9.906286001E-1,1.104048347E1
1.882137726E0,-1.196411371E0,-1.009771109E0,1.096391296E1
1.884244393E0,-1.234696507E0,-1.033699393E0,1.087777138E1
1.886350955E0,-1.258624673E0,-1.043270707E0,1.077727318E1
1.888457570E0,-1.220339537E0,-1.100698471E0,1.032742214E1
1.890564237E0,-1.191625714E0,-1.531406522E0,8.709874153E0
1.892670851E0,-1.311266780E0,-1.560120344E0,9.011369705E0
1.894777466E0,-1.392622828E0,-1.421336651E0,9.580862045E0
1.896884080E0,-1.387837172E0,-1.263410330E0,9.844072342E0
1.898990695E0,-1.330409408E0,-1.110269666E0,9.824930191E0
1.901097362E0,-1.349551916E0,-9.571290612E-1,9.777072906E0
1.903203976E0,-1.459621787E0,-8.327022791E-1,9.748359680E0
1.905310591E0,-1.607976794E0,-7.513462901E-1,9.643074989E0
1.907417205E0,-1.746760488E0,-6.699903607E-1,9.528220177E0
1.909523820E0,-1.885544300E0,-5.312066078E-1,9.489934921E0
1.911630487E0,-2.014756680E0,-4.067798555E-1,9.437292099E0
1.913737101E0,-2.129612207E0,-2.871387303E-1,9.346364975E0
1.915843716E0,-2.215753794E0,-1.866401732E-1,9.279366493E0
1.917950330E0,-2.297109842E0,-1.052841991E-1,9.154939651E0
1.920056945E0,-2.354537487E0,-3.349951655E-2,8.997013092E0
1.922163559E0,-2.426322222E0,7.178468257E-2,8.915657043E0
1.924270174E0,-2.478964329E0,1.339980662E-1,8.815158844E0
1.926376841E0,-2.502892494E0,1.818545163E-1,8.714659691E0
1.928483455E0,-2.498106956E0,2.297109663E-1,8.662017822E0
1.930590070E0,-2.483749866E0,2.775674164E-1,8.666803360E0
1.932696684E0,-2.459821701E0,3.110669553E-1,8.681160927E0
1.934803299E0,-2.426322222E0,3.445664644E-1,8.729017258E0
1.936909966E0,-2.440679073E0,3.780659735E-1,8.791230202E0
1.939016528E0,-2.440679073E0,4.115654826E-1,8.810373306E0
1.941123195E0,-2.450250387E0,4.211367965E-1,8.863015175E0
1.943229809E0,-2.440679073E0,4.594219327E-1,8.906085968E0
1.945336424E0,-2.440679073E0,4.546363056E-1,8.958727837E0
1.947443039E0,-2.411965132E0,4.594219327E-1,9.016156197E0
1.949549705E0,-2.368894339E0,5.024927258E-1,9.044869423E0
1.951656320E0,-2.335394859E0,5.120640397E-1,9.087940216E0
1.953762934E0,-2.297109842E0,5.072783828E-1,9.116654396E0
1.955869549E0,-2.282752752E0,5.359922647E-1,9.169296265E0
1.957976164E0,-2.239681959E0,5.503492355E-1,9.245866776E0
1.960082830E0,-2.206182480E0,5.742774606E-1,9.298508644E0
1.962189393E0,-2.191825628E0,6.077769399E-1,9.317651749E0
1.964296059E0,-2.167897224E0,6.460621357E-1,9.260223389E0
1.966402674E0,-2.139183521E0,6.747759581E-1,9.178867340E0
1.968509289E0,-2.110469580E0,6.604190469E-1,9.078369141E0
1.970615903E0,-2.086541414E0,6.604190469E-1,9.001798630E0
1.972722518E0,-2.076970100E0,6.747759581E-1,8.963513374E0
1.974829132E0,-2.062613010E0,6.939185858E-1,8.891729355E0
1.976935747E0,-2.081755638E0,7.034898400E-1,8.877371788E0
1.979042414E0,-2.091326952E0,7.178468108E-1,8.863015175E0
1.981149028E0,-2.129612207E0,7.226324677E-1,8.848658562E0
1.983255643E0,-2.167897224E0,7.465606928E-1,8.867800713E0
1.985362257E0,-2.206182480E0,7.704889178E-1,8.891729355E0
1.987468872E0,-2.239681959E0,7.896314859E-1,8.910871506E0
1.989575539E0,-2.254039049E0,7.848458290E-1,8.939585686E0
1.991682153E0,-2.263610125E0,7.752745152E-1,8.982656479E0
1.993788768E0,-2.258824587E0,7.609176040E-1,9.011369705E0
1.995895382E0,-2.234896421E0,7.465606928E-1,9.087940216E0
1.998001997E0,-2.191825628E0,7.226324677E-1,9.145368576E0
2.000108612E0,-2.158325911E0,6.891329288E-1,9.241081238E0
2.002215226E0,-2.153540373E0,6.412764788E-1,9.312865257E0
2.004321893E0,-2.120040894E0,6.077769399E-1,9.394221306E0
2.006428507E0,-2.096112728E0,5.359922647E-1,9.418149948E0
2.008535122E0,-2.043470621E0,4.929214716E-1,9.494720459E0
2.010641737E0,-2.009970903E0,4.402793646E-1,9.571290970E0
2.012748351E0,-1.952543259E0,3.732803464E-1,9.619147301E0
2.014855018E0,-1.942971945E0,3.062812984E-1,9.657432556E0
2.016961632E0,-1.895115495E0,2.632105052E-1,9.738788605E0
2.019068247E0,-1.847259045E0,2.105683982E-1,9.801001549E0
2.021174862E0,-1.794616938E0,1.387837082E-1,9.877572060E0
2.023281476E0,-1.770688772E0,8.614161611E-2,9.920642853E0
2.025388091E0,-1.718046665E0,9.571290575E-3,9.992427826E0
2.027494705E0,-1.694118381E0,-4.785645381E-2,1.003549862E1
2.029601372E0,-1.679761529E0,-1.148554832E-1,1.005942631E1
2.031707987E0,-1.665404558E0,-1.818545163E-1,1.007378292E1
2.033814601E0,-1.660618901E0,-2.488535494E-1,1.006899738E1
2.035921216E0,-1.689332843E0,-2.871387303E-1,1.002592659E1
2.038027830E0,-1.694118381E0,-3.302095234E-1,9.963713646E0
2.040134497E0,-1.713261008E0,-3.684946895E-1,9.863214493E0
2.042241112E0,-1.751546144E0,-3.637090325E-1,9.796216011E0
2.044347778E0,-1.775474429E0,-3.780659735E-1,9.690931320E0
2.046454341E0,-1.785045743E0,-3.684946895E-1,9.619147301E0
2.048560955E0,-1.828116536E0,-3.589234054E-1,9.542576790E0
2.050667570E0,-1.852044702E0,-3.062812984E-1,9.466006279E0
2.052774237E0,-1.885544300E0,-2.584248483E-1,9.422935486E0
2.054880799E0,-1.899901152E0,-2.153540403E-1,9.394221306E0
2.056987466E0,-1.919043779E0,-1.579262912E-1,9.346364975E0
2.059094080E0,-1.947757602E0,-1.004985496E-1,9.332008362E0
2.061200695E0,-1.942971945E0,-6.699903309E-2,9.341579437E0
2.063307309E0,-1.971685886E0,-3.349951655E-2,9.375079155E0
2.065413924E0,-1.981257200E0,-9.571290575E-3,9.418149948E0
2.067520539E0,-1.957328916E0,-1.435693540E-2,9.451649666E0
2.069627205E0,-1.942971945E0,0.000000000E0,9.470791817E0
2.071733820E0,-1.923829436E0,-9.571290575E-3,9.475577354E0
2.073840434E0,-1.880758643E0,-4.785645287E-3,9.475577354E0
2.075947049E0,-1.813759565E0,-4.785645287E-3,9.489934921E0
2.078053664E0,-1.741974831E0,4.785645287E-3,9.504291534E0
2.080160330E0,-1.674975872E0,4.307080805E-2,9.523433685E0
2.082266945E0,-1.627119422E0,7.657032460E-2,9.523433685E0
2.084373559E0,-1.545763373E0,1.292124242E-1,9.542576790E0
2.086480174E0,-1.517049551E0,1.674975902E-1,9.528220177E0
2.088586789E0,-1.478764415E0,2.153540403E-1,9.523433685E0
2.090693403E0,-1.440479279E0,2.679961324E-1,9.504291534E0
2.092800018E0,-1.383051515E0,3.110669553E-1,9.475577354E0
2.094906684E0,-1.335195065E0,3.732803464E-1,9.466006279E0
2.097013299E0,-1.268195987E0,4.354937077E-1,9.451649666E0
2.099119914E0,-1.229910851E0,4.881358147E-1,9.442078590E0
2.101226528E0,-1.186840057E0,5.359922647E-1,9.432506561E0
2.103333143E0,-1.162911773E0,5.838487148E-1,9.408578873E0
2.105439809E0,-1.138983607E0,6.364908218E-1,9.365508080E0
2.107546424E0,-1.115055323E0,6.604190469E-1,9.360722542E0
2.109653039E0,-1.105484009E0,6.843472719E-1,9.327222824E0
2.111759653E0,-1.100698471E0,7.082754970E-1,9.303294182E0
2.113866268E0,-1.095912814E0,7.274180651E-1,9.288937569E0
2.115972882E0,-1.100698471E0,7.513462901E-1,9.245866776E0
2.118079497E0,-1.095912814E0,7.417750359E-1,9.226723671E0
2.120186112E0,-1.095912814E0,7.704889178E-1,9.198010445E0
2.122292778E0,-1.124626637E0,7.657032609E-1,9.169296265E0
2.124399393E0,-1.134197950E0,7.226324677E-1,9.116654396E0
2.126506007E0,-1.191625714E0,6.891329288E-1,9.068798065E0
2.128612622E0,-1.239482164E0,6.364908218E-1,9.020941734E0
2.130719289E0,-1.287338614E0,5.934200287E-1,8.968298912E0
2.132825851E0,-1.344766378E0,5.168496966E-1,8.910871506E0
2.134932518E0,-1.383051515E0,4.546363056E-1,8.877371788E0
2.137039132E0,-1.416550994E0,4.067798555E-1,8.867800713E0
2.139145747E0,-1.445264935E0,3.349951804E-1,8.839086533E0
2.141252414E0,-1.459621787E0,2.679961324E-1,8.824729919E0
2.143359028E0,-1.531406522E0,2.105683982E-1,8.791230202E0
2.145465591E0,-1.569691658E0,1.579262912E-1,8.767302513E0
2.147572257E0,-1.622333765E0,1.244267747E-1,8.752944946E0
2.149678872E0,-1.651047587E0,8.614161611E-2,8.752944946E0
2.151785487E0,-1.708475351E0,6.221338734E-2,8.762516975E0
2.153892101E0,-1.727617979E0,8.135596663E-2,8.757730484E0
2.155998716E0,-1.741974831E0,1.004985496E-1,8.772088051E0
2.158105382E0,-1.765903115E0,1.435693651E-1,8.762516975E0
2.160211997E0,-1.789831281E0,1.674975902E-1,8.786444664E0
2.162318612E0,-1.794616938E0,1.866401732E-1,8.805587769E0
2.164425226E0,-1.770688772E0,2.344966233E-1,8.829515457E0
2.166531841E0,-1.751546144E0,2.679961324E-1,8.858229637E0
2.168638507E0,-1.746760488E0,3.349951804E-1,8.882157326E0
2.170745070E0,-1.703689694E0,3.780659735E-1,8.891729355E0
2.172851737E0,-1.660618901E0,4.115654826E-1,8.920442581E0
2.174958351E0,-1.641476393E0,4.977070987E-1,8.953942299E0
2.177064966E0,-1.579262972E0,5.407779217E-1,8.958727837E0
2.179171632E0,-1.550549030E0,5.790630579E-1,9.020941734E0
2.181278247E0,-1.493121386E0,6.269195080E-1,9.016156197E0
2.183384862E0,-1.454836130E0,6.699903607E-1,9.064012527E0
2.185491476E0,-1.440479279E0,6.795616150E-1,9.097511292E0
2.187598091E0,-1.421336651E0,7.034898400E-1,9.145368576E0
2.189704705E0,-1.402194023E0,7.274180651E-1,9.198010445E0
2.191811320E0,-1.406979680E0,7.417750359E-1,9.265008926E0
2.193917934E0,-1.416550994E0,7.513462901E-1,9.322437286E0
2.196024601E0,-1.421336651E0,7.561319470E-1,9.379864693E0
2.198131164E0,-1.440479279E0,7.752745152E-1,9.437292099E0
2.200237830E0,-1.478764415E0,7.992027402E-1,9.466006279E0
2.202344445E0,-1.536192179E0,7.800601721E-1,9.509077072E0
2.204451059E0,-1.603191137E0,7.896314859E-1,9.523433685E0
2.206557674E0,-1.641476393E0,7.896314859E-1,9.547362328E0
2.208664289E0,-1.698904037E0,7.704889178E-1,9.547362328E0
2.210770955E0,-1.741974831E0,7.800601721E-1,9.576076508E0
2.212877570E0,-1.770688772E0,7.609176040E-1,9.585647583E0
2.214984184E0,-1.789831281E0,7.369893789E-1,9.609575272E0
2.217090799E0,-1.832902193E0,7.082754970E-1,9.619147301E0
2.219197414E0,-1.847259045E0,6.891329288E-1,9.647860527E0
2.221304028E0,-1.856830359E0,6.939185858E-1,9.643074989E0
2.223410695E0,-1.871187329E0,6.843472719E-1,9.671789169E0
2.225517309E0,-1.866401672E0,6.843472719E-1,9.705288887E0
2.227623924E0,-1.861616015E0,6.843472719E-1,9.705288887E0
2.229730539E0,-1.885544300E0,7.082754970E-1,9.719645500E0
2.231837153E0,-1.909472466E0,7.178468108E-1,9.714859962E0
2.233943820E0,-1.952543259E0,7.465606928E-1,9.690931320E0
2.236050434E0,-1.981257200E0,7.800601721E-1,9.676574707E0
2.238156997E0,-2.000399828E0,8.135597110E-1,9.633503914E0
2.240263612E0,-2.019542217E0,8.518448472E-1,9.595218658E0
2.242370278E0,-2.029113531E0,8.949156404E-1,9.542576790E0
2.244476893E0,-2.033899307E0,9.332008362E-1,9.509077072E0
2.246583507E0,-2.072184324E0,9.810572863E-1,9.494720459E0
2.248690174E0,-2.100898266E0,1.000199914E0,9.485149384E0
2.250796789E0,-2.105684042E0,1.019342422E0,9.466006279E0
2.252903403E0,-2.134397745E0,1.052842021E0,9.442078590E0
2.255010018E0,-2.148754835E0,1.062413216E0,9.422935486E0
2.257116632E0,-2.163111687E0,1.067198873E0,9.437292099E0
2.259223247E0,-2.177468538E0,1.081555843E0,9.451649666E0
2.261329914E0,-2.163111687E0,1.081555843E0,9.451649666E0
2.263436528E0,-2.148754835E0,1.052842021E0,9.504291534E0
2.265543143E0,-2.115255117E0,1.019342422E0,9.552147865E0
2.267649757E0,-2.081755638E0,9.858429432E-1,9.585647583E0
2.269756372E0,-2.029113531E0,8.997012973E-1,9.614361763E0
2.271862987E0,-1.990828395E0,8.183453679E-1,9.667003632E0
2.273969601E0,-1.947757602E0,7.130611539E-1,9.714859962E0
2.276076268E0,-1.890329838E0,6.556333899E-1,9.767501831E0
2.278182882E0,-1.828116536E0,5.599204898E-1,9.853643417E0
2.280289497E0,-1.751546144E0,5.072783828E-1,9.954142570E0
2.282396112E0,-1.684547186E0,4.259224236E-1,1.009771156E1
2.284502726E0,-1.598405480E0,3.780659735E-1,1.026520920E1
2.286609393E0,-1.512263894E0,3.445664644E-1,1.045663452E1
2.288715955E0,-1.430907965E0,2.871387303E-1,1.070548820E1
2.290822622E0,-1.392622828E0,2.392822653E-1,1.092562866E1
2.292929237E0,-1.330409408E0,2.153540403E-1,1.116969585E1
2.295035851E0,-1.287338614E0,1.866401732E-1,1.139940739E1
2.297142466E0,-1.249053478E0,1.435693651E-1,1.164826107E1
2.299249080E0,-1.220339537E0,1.148554832E-1,1.188275719E1
2.301355747E0,-1.201196909E0,5.742774159E-2,1.213161087E1
2.303462362E0,-1.196411371E0,9.571290575E-3,1.237567902E1
2.305568924E0,-1.196411371E0,-5.742774159E-2,1.262931824E1
2.307675591E0,-1.210768223E0,-1.292124242E-1,1.283510113E1
2.309782205E0,-1.229910851E0,-2.105683982E-1,1.306959724E1
2.311888820E0,-1.277767301E0,-2.727817893E-1,1.326580906E1
2.313995487E0,-1.335195065E0,-3.397808075E-1,1.346680546E1
2.316102101E0,-1.373480201E0,-4.259224236E-1,1.367737389E1
2.318208716E0,-1.397408366E0,-4.833501875E-1,1.389272785E1
2.320315330E0,-1.426122308E0,-5.455635786E-1,1.406022549E1
2.322421945E0,-1.435693622E0,-5.742774606E-1,1.421815205E1
2.324528612E0,-1.450050473E0,-6.077769399E-1,1.432822227E1
2.326635174E0,-1.454836130E0,-6.317051649E-1,1.442872047E1
2.328741841E0,-1.445264935E0,-6.556333899E-1,1.454357624E1
2.330848455E0,-1.426122308E0,-6.412764788E-1,1.458186150E1
2.332955070E0,-1.392622828E0,-6.317051649E-1,1.459143257E1
2.335061684E0,-1.335195065E0,-6.221339107E-1,1.456271839E1
2.337168299E0,-1.296909928E0,-6.125625968E-1,1.445264912E1
2.339274914E0,-1.234696507E0,-6.029912829E-1,1.430907917E1
2.341381580E0,-1.134197950E0,-5.790630579E-1,1.407458305E1
2.343488195E0,-1.028913736E0,-5.694918036E-1,1.386401463E1
2.345594809E0,-9.475577474E-1,-5.551348329E-1,1.365823174E1
2.347701424E0,-8.422735929E-1,-5.790630579E-1,1.347159195E1
2.349808039E0,-7.322037220E-1,-6.221339107E-1,1.326580906E1
2.351914653E0,-6.317051649E-1,-6.699903607E-1,1.307438278E1
2.354021320E0,-5.455635786E-1,-7.130611539E-1,1.288295746E1
2.356127934E0,-4.307080805E-1,-7.609176040E-1,1.273460197E1
2.358234549E0,-3.206382394E-1,-8.279166222E-1,1.258146191E1
2.360341164E0,-2.201396823E-1,-8.662018180E-1,1.241396427E1
2.362447778E0,-1.483550072E-1,-9.523434043E-1,1.226082325E1
2.364554393E0,-6.221338734E-2,-1.043270707E0,1.213639641E1
2.366661007E0,3.349951655E-2,-1.134197950E0,1.204068375E1
2.368767674E0,6.699903309E-2,-1.239482164E0,1.192582798E1
2.370874237E0,8.135596663E-2,-1.354337573E0,1.187797165E1
2.372980903E0,8.614161611E-2,-1.469193101E0,1.183490086E1
2.375087518E0,7.178468257E-2,-1.579262972E0,1.181575775E1
2.377194132E0,1.435693540E-2,-1.689332843E0,1.180140114E1
2.379300799E0,-5.742774159E-2,-1.804188251E0,1.183011532E1
2.381407414E0,-1.770688742E-1,-1.890329838E0,1.185404301E1
2.383514028E0,-2.967100143E-1,-1.981257200E0,1.191625690E1
2.385620643E0,-4.211367965E-1,-2.053041935E0,1.197368431E1
2.387727257E0,-5.694918036E-1,-2.110469580E0,1.203589821E1
2.389833872E0,-7.274180651E-1,-2.148754835E0,1.209811115E1
2.391940487E0,-8.662018180E-1,-2.215753794E0,1.211725426E1
2.394047153E0,-1.024128079E0,-2.239681959E0,1.213639641E1
2.396153768E0,-1.172483087E0,-2.263610125E0,1.216511059E1
2.398260382E0,-1.325623751E0,-2.297109842E0,1.211246777E1
2.400366997E0,-1.459621787E0,-2.340180635E0,1.206939697E1
2.402473612E0,-1.593619823E0,-2.354537487E0,1.194018459E1
2.404580226E0,-1.698904037E0,-2.383251429E0,1.183011532E1
2.406686893E0,-1.785045743E0,-2.359323025E0,1.165783215E1
2.408793507E0,-1.856830359E0,-2.368894339E0,1.147119141E1
2.410900122E0,-1.928615093E0,-2.340180635E0,1.125583744E1
2.413006737E0,-1.981257200E0,-2.277967215E0,1.107398319E1
2.415113351E0,-2.009970903E0,-2.239681959E0,1.082991505E1
2.417219966E0,-2.033899307E0,-2.167897224E0,1.057149029E1
2.419326580E0,-2.053041935E0,-2.081755638E0,1.031785107E1
2.421433247E0,-2.033899307E0,-1.981257200E0,1.007378292E1
2.423539862E0,-2.033899307E0,-1.866401672E0,9.853643417E0
2.425646476E0,-2.024327993E0,-1.751546144E0,9.585647583E0
2.427753091E0,-2.009970903E0,-1.612762451E0,9.370293617E0
2.429859705E0,-1.971685886E0,-1.478764415E0,9.159725189E0
2.431966320E0,-1.938186288E0,-1.325623751E0,8.925228119E0
2.434072987E0,-1.895115495E0,-1.220339537E0,8.729017258E0
2.436179601E0,-1.828116536E0,-1.057627559E0,8.518448830E0
2.438286216E0,-1.751546144E0,-9.188438654E-1,8.298309326E0
2.440392830E0,-1.651047587E0,-7.848458290E-1,8.097311974E0
2.442499445E0,-1.574477315E0,-6.269195080E-1,7.910671711E0
2.444606112E0,-1.512263894E0,-5.072783828E-1,7.690532207E0
2.446712726E0,-1.464407444E0,-3.684946895E-1,7.508677483E0
2.448819341E0,-1.378265858E0,-2.536391914E-1,7.350750923E0
2.450925955E0,-1.292124271E0,-1.148554832E-1,7.216753006E0
2.453032570E0,-1.210768223E0,-4.785645287E-3,7.092326164E0
2.455139184E0,-1.115055323E0,1.292124242E-1,7.001399040E0
2.457245799E0,-1.033699393E0,2.344966233E-1,6.929614544E0
2.459352466E0,-9.236295223E-1,3.397808075E-1,6.910471916E0
2.461459080E0,-8.231309652E-1,4.402793646E-1,6.876972198E0
2.463565695E0,-7.226324677E-1,5.312066078E-1,6.886543751E0
2.465672309E0,-6.221339107E-1,6.269195080E-1,6.896114826E0
2.467778924E0,-5.455635786E-1,6.987041831E-1,6.958328247E0
2.469885539E0,-4.929214716E-1,7.657032609E-1,7.006184578E0
2.471992153E0,-3.972085714E-1,8.135597110E-1,7.077969551E0
2.474098768E0,-3.445664644E-1,8.279166222E-1,7.159325123E0
2.476205434E0,-2.967100143E-1,8.135597110E-1,7.245467186E0
2.478312049E0,-2.679961324E-1,7.800601721E-1,7.350750923E0
2.480418664E0,-2.488535494E-1,7.465606928E-1,7.441678524E0
2.482525278E0,-2.488535494E-1,6.987041831E-1,7.566105366E0
2.484631893E0,-2.536391914E-1,6.317051649E-1,7.666603565E0
2.486738507E0,-2.727817893E-1,5.312066078E-1,7.800601959E0
2.488845174E0,-3.110669553E-1,4.067798555E-1,7.934599876E0
2.490951789E0,-3.541377485E-1,3.349951804E-1,8.054241180E0
2.493058403E0,-3.924229145E-1,2.392822653E-1,8.188239098E0
2.495165018E0,-4.402793646E-1,1.531406492E-1,8.322237015E0
2.497271632E0,-5.024927258E-1,7.178468257E-2,8.427521706E0
2.499378247E0,-5.982056856E-1,-1.435693540E-2,8.556734085E0
2.501484914E0,-6.795616150E-1,-5.264209956E-2,8.676374435E0
2.503591528E0,-7.657032609E-1,-1.196411327E-1,8.805587769E0
2.505698143E0,-8.374879360E-1,-1.531406492E-1,8.915657043E0
2.507804757E0,-8.997012973E-1,-2.009970993E-1,9.040083885E0
2.509911372E0,-9.332008362E-1,-2.536391914E-1,9.107083321E0
2.512017987E0,-9.762716293E-1,-2.584248483E-1,9.217152596E0
2.514124653E0,-9.714859724E-1,-2.775674164E-1,9.303294182E0
2.516231216E0,-9.858429432E-1,-2.823530734E-1,9.389435768E0
2.518337882E0,-9.667003751E-1,-2.679961324E-1,9.475577354E0
2.520444497E0,-9.571290612E-1,-2.536391914E-1,9.533005714E0
2.522551112E0,-9.523434043E-1,-2.440679073E-1,9.604789734E0
2.524657778E0,-9.188438654E-1,-2.009970993E-1,9.633503914E0
2.526764341E0,-8.901300430E-1,-1.770688742E-1,9.643074989E0
2.528871007E0,-8.518448472E-1,-1.483550072E-1,9.633503914E0
2.530977622E0,-8.279166222E-1,-9.571290761E-2,9.590433121E0
2.533084237E0,-8.231309652E-1,-1.914258115E-2,9.556933403E0
2.535190851E0,-8.231309652E-1,6.221338734E-2,9.489934921E0
2.537297466E0,-7.896314859E-1,1.531406492E-1,9.389435768E0
2.539404080E0,-7.752745152E-1,2.297109663E-1,9.298508644E0
2.541510695E0,-7.465606928E-1,3.062812984E-1,9.159725189E0
2.543617362E0,-7.226324677E-1,3.828516304E-1,8.982656479E0
2.545723976E0,-7.130611539E-1,4.689932466E-1,8.824729919E0
2.547830591E0,-6.747759581E-1,5.312066078E-1,8.662017822E0
2.549937205E0,-6.747759581E-1,6.029912829E-1,8.461020470E0
2.552043872E0,-6.987041831E-1,6.364908218E-1,8.298309326E0
2.554150434E0,-6.891329288E-1,6.795616150E-1,8.135597229E0
2.556257101E0,-6.795616150E-1,7.178468108E-1,8.011170387E0
2.558363716E0,-7.082754970E-1,7.561319470E-1,7.858029366E0
2.560470330E0,-7.082754970E-1,8.087740541E-1,7.728816986E0
2.562576945E0,-7.465606928E-1,8.422735929E-1,7.623532772E0
2.564683559E0,-7.704889178E-1,8.805587292E-1,7.508677483E0
2.566790174E0,-7.896314859E-1,9.092726111E-1,7.422535896E0
2.568896789E0,-8.183453679E-1,9.475577474E-1,7.317251682E0
2.571003455E0,-8.518448472E-1,9.858429432E-1,7.221538544E0
2.573110070E0,-8.901300430E-1,1.014556766E0,7.130611420E0
2.575216684E0,-9.284151793E-1,1.038485050E0,7.063612461E0
2.577323299E0,-9.762716293E-1,1.086341500E0,6.977470875E0
2.579429966E0,-1.052842021E0,1.105484009E0,6.929614544E0
2.581536528E0,-1.105484009E0,1.100698471E0,6.881757736E0
2.583643195E0,-1.177268744E0,1.100698471E0,6.824330330E0
2.585749809E0,-1.244267821E0,1.091127157E0,6.814758778E0
2.587856424E0,-1.268195987E0,1.086341500E0,6.762116909E0
2.589963039E0,-1.316052437E0,1.071984529E0,6.738188744E0
2.592069653E0,-1.363908887E0,1.057627559E0,6.733402729E0
2.594176320E0,-1.416550994E0,1.071984529E0,6.695117950E0
2.596282934E0,-1.450050473E0,1.052842021E0,6.690331936E0
2.598389549E0,-1.497906923E0,1.033699393E0,6.695117950E0
2.600496164E0,-1.550549030E0,9.954141974E-1,6.690331936E0
2.602602778E0,-1.598405480E0,9.714859724E-1,6.656832695E0
2.604709393E0,-1.655833244E0,9.619147182E-1,6.656832695E0
2.606816007E0,-1.684547186E0,9.140582681E-1,6.671189308E0
2.608922674E0,-1.698904037E0,8.949156404E-1,6.637690067E0
2.611029289E0,-1.732403636E0,8.518448472E-1,6.675975323E0
2.613135903E0,-1.732403636E0,8.422735929E-1,6.656832695E0
2.615242518E0,-1.737189293E0,8.279166222E-1,6.652047157E0
2.617349184E0,-1.732403636E0,8.327022791E-1,6.652047157E0
2.619455799E0,-1.751546144E0,8.183453679E-1,6.675975323E0
2.621562414E0,-1.732403636E0,7.992027402E-1,6.690331936E0
2.623669028E0,-1.732403636E0,8.231309652E-1,6.685546398E0
2.625775643E0,-1.694118381E0,8.279166222E-1,6.709474564E0
2.627882257E0,-1.670190215E0,8.566305041E-1,6.733402729E0
2.629988872E0,-1.641476393E0,8.757730722E-1,6.776473522E0
2.632095487E0,-1.598405480E0,8.949156404E-1,6.800402164E0
2.634202101E0,-1.550549030E0,9.236295223E-1,6.881757736E0
2.636308768E0,-1.497906923E0,9.475577474E-1,6.924828529E0
2.638415382E0,-1.435693622E0,9.762716293E-1,7.001399040E0
2.640521997E0,-1.383051515E0,1.019342422E0,7.044469833E0
2.642628612E0,-1.316052437E0,1.048056364E0,7.097112179E0
2.644735226E0,-1.253839016E0,1.086341500E0,7.121040344E0
2.646841841E0,-1.215553880E0,1.119840980E0,7.173682213E0
2.648948455E0,-1.129412293E0,1.172483087E0,7.211967468E0
2.651055070E0,-1.100698471E0,1.196411371E0,7.264609337E0
2.653161737E0,-1.057627559E0,1.244267821E0,7.307680130E0
2.655268351E0,-1.014556766E0,1.263410330E0,7.345965385E0
2.657374966E0,-9.858429432E-1,1.301695466E0,7.427321434E0
2.659481580E0,-9.379864931E-1,1.335195065E0,7.484749317E0
2.661588195E0,-9.236295223E-1,1.368694544E0,7.566105366E0
2.663694862E0,-8.662018180E-1,1.406979680E0,7.661818027E0
2.665801476E0,-8.422735929E-1,1.435693622E0,7.743174076E0
2.667908091E0,-8.135597110E-1,1.459621787E0,7.805387497E0
2.670014705E0,-7.609176040E-1,1.483550072E0,7.877171993E0
2.672121320E0,-7.274180651E-1,1.507478237E0,7.910671711E0
2.674227934E0,-6.939185858E-1,1.507478237E0,7.939385414E0
2.676334601E0,-6.747759581E-1,1.507478237E0,7.944170952E0
2.678441164E0,-6.604190469E-1,1.483550072E0,7.953742504E0
2.680547830E0,-6.556333899E-1,1.493121386E0,7.934599876E0
2.682654445E0,-6.556333899E-1,1.497906923E0,7.925028801E0
2.684761059E0,-6.699903607E-1,1.459621787E0,7.891529083E0
2.686867674E0,-7.034898400E-1,1.454836130E0,7.872386456E0
2.688974289E0,-7.369893789E-1,1.450050473E0,7.838887215E0
2.691080903E0,-7.800601721E-1,1.440479279E0,7.810173035E0
2.693187570E0,-8.231309652E-1,1.450050473E0,7.771887779E0
2.695294184E0,-9.044869542E-1,1.450050473E0,7.781459332E0
2.697400799E0,-9.906286001E-1,1.445264935E0,7.757531166E0
2.699507414E0,-1.038485050E0,1.454836130E0,7.704888821E0
2.701614028E0,-1.048056364E0,1.473978758E0,7.676175117E0
2.703720695E0,-1.048056364E0,1.478764415E0,7.666603565E0
2.705827309E0,-1.043270707E0,1.469193101E0,7.671389580E0
2.707933924E0,-1.062413216E0,1.464407444E0,7.652246952E0
2.710040539E0,-1.067198873E0,1.450050473E0,7.671389580E0
2.712147153E0,-1.081555843E0,1.435693622E0,7.724031448E0
2.714253768E0,-1.071984529E0,1.454836130E0,7.767102242E0
2.716360382E0,-1.095912814E0,1.459621787E0,7.819744587E0
2.718466997E0,-1.076770186E0,1.450050473E0,7.910671711E0
2.720573664E0,-1.071984529E0,1.469193101E0,7.972885132E0
2.722680278E0,-1.067198873E0,1.478764415E0,8.063812256E0
2.724786893E0,-1.048056364E0,1.478764415E0,8.169096947E0
2.726893507E0,-1.076770186E0,1.502692580E0,8.260024071E0
2.729000122E0,-1.091127157E0,1.483550072E0,8.370093346E0
2.731106737E0,-1.110269666E0,1.493121386E0,8.465806961E0
2.733213351E0,-1.115055323E0,1.502692580E0,8.571090698E0
2.735320018E0,-1.119840980E0,1.512263894E0,8.671588898E0
2.737426632E0,-1.119840980E0,1.512263894E0,8.796015739E0
2.739533247E0,-1.129412293E0,1.517049551E0,8.882157326E0
2.741639862E0,-1.129412293E0,1.536192179E0,8.973084450E0
2.743746528E0,-1.134197950E0,1.550549030E0,9.073583603E0
2.745853143E0,-1.110269666E0,1.555334687E0,9.135796547E0
2.747959705E0,-1.100698471E0,1.574477315E0,9.198010445E0
2.750066372E0,-1.100698471E0,1.584048629E0,9.241081238E0
2.752172987E0,-1.105484009E0,1.588834286E0,9.322437286E0
2.754279601E0,-1.115055323E0,1.607976794E0,9.360722542E0
2.756386216E0,-1.167697430E0,1.627119422E0,9.394221306E0
2.758492830E0,-1.186840057E0,1.756331801E0,9.451649666E0
2.760599445E0,-1.205982566E0,1.732403636E0,9.475577354E0
2.762706112E0,-1.229910851E0,1.708475351E0,9.480362892E0
2.764812726E0,-1.249053478E0,1.694118381E0,9.518648148E0
2.766919341E0,-1.287338614E0,1.655833244E0,9.561718941E0
2.769025955E0,-1.325623751E0,1.660618901E0,9.638289452E0
2.771132570E0,-1.339980721E0,1.655833244E0,9.690931320E0
2.773239237E0,-1.316052437E0,1.670190215E0,9.767501831E0
2.775345799E0,-1.292124271E0,1.679761529E0,9.791430473E0
2.777452466E0,-1.272981644E0,1.674975872E0,9.844072342E0
2.779559080E0,-1.234696507E0,1.703689694E0,9.896714211E0
2.781665695E0,-1.229910851E0,1.708475351E0,9.958928108E0
2.783772309E0,-1.249053478E0,1.732403636E0,1.004985523E1
2.785878924E0,-1.268195987E0,1.756331801E0,1.010728264E1
2.787985591E0,-1.292124271E0,1.794616938E0,1.015992451E1
2.790092205E0,-1.330409408E0,1.847259045E0,1.022692394E1
2.792198768E0,-1.330409408E0,1.904686809E0,1.027956581E1
2.794305434E0,-1.325623751E0,1.957328916E0,1.033220863E1
2.796412049E0,-1.301695466E0,2.048256159E0,1.037049294E1
2.798518664E0,-1.292124271E0,2.086541414E0,1.042313576E1
2.800625278E0,-1.296909928E0,2.129612207E0,1.047577763E1
2.802731945E0,-1.287338614E0,2.163111687E0,1.052841949E1
2.804838507E0,-1.296909928E0,2.172683001E0,1.059541893E1
2.806945174E0,-1.320838094E0,2.196611166E0,1.073898792E1
2.809051789E0,-1.349551916E0,2.158325911E0,1.082991505E1
2.811158403E0,-1.354337573E0,2.139183521E0,1.096391296E1
2.813265018E0,-1.363908887E0,2.105684042E0,1.110269737E1
2.815371632E0,-1.349551916E0,2.048256159E0,1.121755219E1
2.817478247E0,-1.359123230E0,1.966900229E0,1.135633659E1
2.819584914E0,-1.378265858E0,1.895115495E0,1.144247818E1
2.821691528E0,-1.392622828E0,1.799402595E0,1.156211948E1
2.823798143E0,-1.421336651E0,1.679761529E0,1.166740322E1
2.825904757E0,-1.459621787E0,1.560120344E0,1.178225899E1
2.828011372E0,-1.497906923E0,1.411765337E0,1.195932770E1
2.830117987E0,-1.550549030E0,1.268195987E0,1.207896900E1
2.832224653E0,-1.612762451E0,1.124626637E0,1.223689461E1
2.834331268E0,-1.641476393E0,1.004985452E0,1.240917778E1
2.836437882E0,-1.703689694E0,8.374879360E-1,1.260538960E1
2.838544497E0,-1.761117458E0,6.987041831E-1,1.278724384E1
2.840651112E0,-1.842473388E0,5.503492355E-1,1.299302673E1
2.842757726E0,-1.914258122E0,4.211367965E-1,1.320359516E1
2.844864341E0,-2.014756680E0,2.823530734E-1,1.340459251E1
2.846971007E0,-2.091326952E0,1.579262912E-1,1.358166122E1
2.849077622E0,-2.172683001E0,4.307080805E-2,1.374437332E1
2.851184237E0,-2.263610125E0,-4.307080805E-2,1.386880016E1
2.853290851E0,-2.344966173E0,-1.148554832E-1,1.395972729E1
2.855397466E0,-2.431107759E0,-1.435693651E-1,1.405065441E1
2.857504080E0,-2.478964329E0,-1.818545163E-1,1.414158154E1
2.859610747E0,-2.522035122E0,-2.009970993E-1,1.421815205E1
2.861717362E0,-2.579462767E0,-1.674975902E-1,1.427557945E1
2.863823976E0,-2.574677229E0,-1.196411327E-1,1.431386471E1
2.865930591E0,-2.584248543E0,-5.264209956E-2,1.434257889E1
2.868037205E0,-2.555534601E0,1.914258115E-2,1.436650753E1
2.870143820E0,-2.531606436E0,6.221338734E-2,1.434736443E1
2.872250487E0,-2.498106956E0,1.387837082E-1,1.428993702E1
2.874357049E0,-2.440679073E0,2.105683982E-1,1.423250866E1
2.876463716E0,-2.344966173E0,2.584248483E-1,1.414636707E1
2.878570330E0,-2.268395901E0,2.967100143E-1,1.408415413E1
2.880676945E0,-2.163111687E0,3.349951804E-1,1.401715469E1
2.882783559E0,-2.062613010E0,3.493520916E-1,1.396451283E1
2.884890174E0,-1.933400750E0,3.541377485E-1,1.390229988E1
2.886996841E0,-1.794616938E0,3.637090325E-1,1.389751434E1
2.889103403E0,-1.665404558E0,3.541377485E-1,1.386401463E1
2.891210070E0,-1.536192179E0,3.397808075E-1,1.383530045E1
2.893316684E0,-1.411765337E0,3.254238665E-1,1.383530045E1
2.895423299E0,-1.296909928E0,3.206382394E-1,1.386401463E1
2.897529914E0,-1.201196909E0,2.919243574E-1,1.391187096E1
2.899636528E0,-1.124626637E0,2.488535494E-1,1.396929836E1
2.901743195E0,-1.028913736E0,2.201396823E-1,1.404586887E1
2.903849809E0,-9.427721500E-1,1.627119333E-1,1.411765385E1
2.905956424E0,-8.949156404E-1,9.571290761E-2,1.424208069E1
2.908063039E0,-8.374879360E-1,9.571290575E-3,1.439043522E1
2.910169653E0,-7.944171429E-1,-7.657032460E-2,1.454357624E1
2.912276268E0,-8.135597110E-1,-1.435693651E-1,1.467757416E1
2.914382934E0,-7.944171429E-1,-2.679961324E-1,1.487378597E1
2.916489549E0,-7.800601721E-1,-3.684946895E-1,1.505085468E1
2.918596164E0,-7.561319470E-1,-4.881358147E-1,1.520878029E1
2.920702778E0,-7.226324677E-1,-6.221339107E-1,1.535713577E1
2.922809393E0,-6.987041831E-1,-7.609176040E-1,1.551506233E1
2.924916007E0,-6.939185858E-1,-8.901300430E-1,1.562991714E1
2.927022674E0,-6.939185858E-1,-1.014556766E0,1.576391602E1
2.929129289E0,-7.034898400E-1,-1.158126116E0,1.585484314E1
2.931235903E0,-7.274180651E-1,-1.292124271E0,1.594098473E1
2.933342518E0,-7.896314859E-1,-1.421336651E0,1.601755524E1
2.935449132E0,-8.135597110E-1,-1.526620865E0,1.604626846E1
2.937555747E0,-8.183453679E-1,-1.584048629E0,1.606541061E1
2.939662362E0,-8.662018180E-1,-1.655833244E0,1.607498169E1
2.941769028E0,-9.044869542E-1,-1.689332843E0,1.604148293E1
2.943875591E0,-9.188438654E-1,-1.684547186E0,1.594577026E1
2.945982257E0,-9.475577474E-1,-1.670190215E0,1.581655788E1
2.948088872E0,-9.714859724E-1,-1.612762451E0,1.561556053E1
2.950195487E0,-9.714859724E-1,-1.526620865E0,1.540977764E1
2.952302101E0,-1.004985452E0,-1.421336651E0,1.510828209E1
2.954408768E0,-1.052842021E0,-1.268195987E0,1.473978710E1
2.956515382E0,-1.119840980E0,-1.110269666E0,1.433300781E1
2.958621997E0,-1.201196909E0,-9.236295223E-1,1.391187096E1
2.960728612E0,-1.258624673E0,-7.178468108E-1,1.345723438E1
2.962835226E0,-1.339980721E0,-5.168496966E-1,1.301216984E1
2.964941841E0,-1.406979680E0,-3.062812984E-1,1.258624744E1
2.967048455E0,-1.445264935E0,-1.052841991E-1,1.214118195E1
2.969155070E0,-1.483550072E0,9.092725813E-2,1.172004509E1
2.971261737E0,-1.488335729E0,2.344966233E-1,1.127498055E1
2.973368351E0,-1.507478237E0,3.637090325E-1,1.083470058E1
2.975474966E0,-1.517049551E0,4.977070987E-1,1.038963604E1
2.977581580E0,-1.540977836E0,5.934200287E-1,9.987641335E0
2.979688195E0,-1.588834286E0,7.034898400E-1,9.571290970E0
2.981794809E0,-1.641476393E0,7.609176040E-1,9.159725189E0
2.983901476E0,-1.674975872E0,8.279166222E-1,8.767302513E0
2.986008091E0,-1.722832322E0,8.709874153E-1,8.379665375E0
2.988114705E0,-1.765903115E0,8.805587292E-1,8.001599312E0
2.990221320E0,-1.808973908E0,9.044869542E-1,7.676175117E0
2.992327934E0,-1.875972986E0,9.140582681E-1,7.341179848E0
2.994434601E0,-1.966900229E0,9.092726111E-1,7.049255371E0
2.996541216E0,-2.048256159E0,9.092726111E-1,6.771687984E0
2.998647778E0,-2.163111687E0,9.188438654E-1,6.546762943E0
3.000754445E0,-2.258824587E0,8.949156404E-1,6.345765591E0
3.002861059E0,-2.373680115E0,9.044869542E-1,6.178267956E0
3.004967674E0,-2.493321180E0,8.997012973E-1,6.044270039E0
3.007074289E0,-2.598605394E0,9.044869542E-1,5.958128452E0
3.009180903E0,-2.694318295E0,9.140582681E-1,5.848058701E0
3.011287570E0,-2.780459881E0,9.044869542E-1,5.790630817E0
3.013394184E0,-2.880958557E0,8.997012973E-1,5.790630817E0
3.015500799E0,-2.971885681E0,8.662018180E-1,5.747560024E0
3.017607414E0,-3.058027267E0,8.422735929E-1,5.757131100E0
3.019714028E0,-3.134597778E0,7.992027402E-1,5.819344521E0
3.021820643E0,-3.196810961E0,7.609176040E-1,5.876772404E0
3.023927309E0,-3.268595695E0,7.178468108E-1,5.929414749E0
3.026033872E0,-3.311666489E0,6.795616150E-1,6.015556335E0
3.028140539E0,-3.354737282E0,6.460621357E-1,6.101697922E0
3.030247153E0,-3.354737282E0,6.125625968E-1,6.221338749E0
3.032353768E0,-3.359523058E0,5.647061467E-1,6.331408501E0
3.034460382E0,-3.321237803E0,5.359922647E-1,6.465406895E0
3.036566997E0,-3.254238844E0,5.455635786E-1,6.594619274E0
3.038673664E0,-3.230310678E0,4.737788737E-1,6.714260101E0
3.040780226E0,-3.244667530E0,3.684946895E-1,6.900900364E0
3.042886893E0,-3.254238844E0,2.679961324E-1,7.054041386E0
3.044993507E0,-3.244667530E0,1.531406492E-1,7.235895634E0
3.047100122E0,-3.230310678E0,3.828516230E-2,7.384250641E0
3.049206737E0,-3.168097258E0,-3.349951655E-2,7.523034573E0
3.051313351E0,-3.058027267E0,-1.100698411E-1,7.618747234E0
3.053419966E0,-2.947957516E0,-1.866401732E-1,7.728816986E0
3.055526580E0,-2.861815929E0,-2.440679073E-1,7.853243828E0
3.057633247E0,-2.761317253E0,-3.158525825E-1,8.025527000E0
3.059739862E0,-2.694318295E0,-3.780659735E-1,8.173882484E0
3.061846476E0,-2.636890650E0,-3.972085714E-1,8.312665939E0
3.063953091E0,-2.565105915E0,-3.924229145E-1,8.456234932E0
3.066059757E0,-2.478964329E0,-3.876372576E-1,8.580661774E0
3.068166320E0,-2.435893536E0,-4.019941986E-1,8.705088615E0
3.070272934E0,-2.397608280E0,-3.876372576E-1,8.819944382E0
3.072379549E0,-2.373680115E0,-3.589234054E-1,8.930013657E0
3.074486216E0,-2.359323025E0,-3.589234054E-1,9.025727272E0
3.076592830E0,-2.321038008E0,-3.158525825E-1,9.140582085E0
3.078699445E0,-2.292324066E0,-2.967100143E-1,9.212367058E0
3.080806059E0,-2.234896421E0,-2.488535494E-1,9.245866776E0
3.082912674E0,-2.187039852E0,-1.770688742E-1,9.288937569E0
3.085019289E0,-2.153540373E0,-1.339980662E-1,9.312865257E0
3.087125903E0,-2.120040894E0,-7.657032460E-2,9.308079720E0
3.089232570E0,-2.067398787E0,-4.307080805E-2,9.341579437E0
3.091339184E0,-1.971685886E0,4.785645381E-2,9.332008362E0
3.093445799E0,-1.895115495E0,1.148554832E-1,9.322437286E0
3.095552414E0,-1.880758643E0,1.674975902E-1,9.317651749E0
3.097659028E0,-1.895115495E0,1.866401732E-1,9.327222824E0
3.099765695E0,-1.890329838E0,2.249253243E-1,9.279366493E0
3.101872309E0,-1.871187329E0,2.536391914E-1,9.236295700E0
3.103978924E0,-1.871187329E0,2.632105052E-1,9.198010445E0
3.106085539E0,-1.866401672E0,2.679961324E-1,9.164510727E0
3.108192205E0,-1.871187329E0,2.440679073E-1,9.131011009E0
3.110298768E0,-1.871187329E0,2.201396823E-1,9.059226990E0
3.112405382E0,-1.885544300E0,1.818545163E-1,9.025727272E0
3.114512049E0,-1.914258122E0,1.483550072E-1,8.963513374E0
3.116618612E0,-1.957328916E0,1.196411327E-1,8.886942863E0
3.118725278E0,-1.986042738E0,8.135596663E-2,8.815158844E0
3.120831893E0,-2.029113531E0,2.871387079E-2,8.748159409E0
3.122938507E0,-2.100898266E0,4.785645287E-3,8.705088615E0
3.125045174E0,-2.148754835E0,-2.392822690E-2,8.647661209E0
3.127151789E0,-2.230110645E0,-3.828516230E-2,8.561519623E0
3.129258403E0,-2.277967215E0,-4.785645381E-2,8.480163574E0
3.131365018E0,-2.316252232E0,-4.785645381E-2,8.413164139E0
3.133471632E0,-2.378465652E0,-7.657032460E-2,8.298309326E0
3.135578247E0,-2.411965132E0,-9.092725813E-2,8.216953278E0
3.137684862E0,-2.459821701E0,-8.135596663E-2,8.121239662E0
3.139791476E0,-2.512463808E0,-8.135596663E-2,8.015955925E0
3.141898091E0,-2.555534601E0,-6.221338734E-2,7.929814339E0
3.144004705E0,-2.593819857E0,-3.828516230E-2,7.795815945E0
3.146111372E0,-2.656033039E0,-3.349951655E-2,7.700103283E0
3.148217987E0,-2.679961443E0,-9.571290575E-3,7.623532772E0
3.150324601E0,-2.694318295E0,-9.571290575E-3,7.503891945E0
3.152431216E0,-2.694318295E0,4.785645287E-3,7.432106972E0
3.154537882E0,-2.703889608E0,4.307080805E-2,7.326822758E0
3.156644497E0,-2.699103832E0,6.699903309E-2,7.211967468E0
3.158751112E0,-2.694318295E0,1.100698411E-1,7.121040344E0
3.160857726E0,-2.684746981E0,1.674975902E-1,7.039684296E0
3.162964341E0,-2.646461725E0,2.344966233E-1,6.920042992E0
3.165070955E0,-2.579462767E0,2.679961324E-1,6.829115868E0
3.167177570E0,-2.507678032E0,3.014956415E-1,6.752545357E0
3.169284184E0,-2.474178553E0,3.445664644E-1,6.671189308E0
3.171390799E0,-2.445464849E0,4.019941986E-1,6.632904530E0
3.173497466E0,-2.440679073E0,4.594219327E-1,6.599404812E0
3.175604080E0,-2.392822742E0,5.312066078E-1,6.570691109E0
3.177710695E0,-2.373680115E0,6.173482537E-1,6.546762943E0
3.179817309E0,-2.321038008E0,6.843472719E-1,6.532405853E0
3.181923924E0,-2.287538528E0,7.561319470E-1,6.541976929E0
3.184030539E0,-2.254039049E0,8.374879360E-1,6.541976929E0
3.186137205E0,-2.230110645E0,9.044869542E-1,6.551548481E0
3.188243820E0,-2.210968018E0,9.667003751E-1,6.556334019E0
3.190350434E0,-2.206182480E0,1.024128079E0,6.599404812E0
3.192457049E0,-2.230110645E0,1.062413216E0,6.608976364E0
3.194563664E0,-2.230110645E0,1.115055323E0,6.613761902E0
3.196670278E0,-2.215753794E0,1.153340459E0,6.632904530E0
3.198776893E0,-2.187039852E0,1.182054400E0,6.652047157E0
3.200883559E0,-2.172683001E0,1.210768223E0,6.685546398E0
3.202990174E0,-2.196611166E0,1.225125194E0,6.709474564E0
3.205096737E0,-2.172683001E0,1.234696507E0,6.742974281E0
3.207203403E0,-2.163111687E0,1.253839016E0,6.747759819E0
3.209310018E0,-2.139183521E0,1.258624673E0,6.786045074E0
3.211416684E0,-2.120040894E0,1.244267821E0,6.786045074E0
3.213523247E0,-2.081755638E0,1.263410330E0,6.805187702E0
3.215629914E0,-2.067398787E0,1.215553880E0,6.833901405E0
3.217736528E0,-2.038684845E0,1.196411371E0,6.843472958E0
3.219843143E0,-2.029113531E0,1.186840057E0,6.881757736E0
3.221949757E0,-2.024327993E0,1.134197950E0,6.891329288E0
3.224056372E0,-2.038684845E0,1.105484009E0,6.939185619E0
3.226162987E0,-2.048256159E0,1.062413216E0,6.929614544E0
3.228269601E0,-2.057827473E0,1.024128079E0,6.967899323E0
3.230376268E0,-2.081755638E0,9.810572863E-1,7.010970116E0
3.232482882E0,-2.081755638E0,9.667003751E-1,7.063612461E0
3.234589497E0,-2.072184324E0,9.284151793E-1,7.097112179E0
3.236696112E0,-2.067398787E0,9.236295223E-1,7.159325123E0
3.238802726E0,-2.081755638E0,9.092726111E-1,7.259823799E0
3.240909341E0,-2.091326952E0,8.949156404E-1,7.369893551E0
3.243016007E0,-2.124826431E0,8.805587292E-1,7.484749317E0
3.245122570E0,-2.115255117E0,8.614161611E-1,7.594819069E0
3.247229237E0,-2.124826431E0,8.279166222E-1,7.752745152E0
3.249335851E0,-2.115255117E0,8.231309652E-1,7.872386456E0
3.251442466E0,-2.096112728E0,7.992027402E-1,8.001599312E0
3.253549080E0,-2.086541414E0,7.848458290E-1,8.173882484E0
3.255655695E0,-2.072184324E0,7.609176040E-1,8.312665939E0
3.257762309E0,-2.038684845E0,7.752745152E-1,8.432307243E0
3.259868924E0,-2.024327993E0,7.752745152E-1,8.542376518E0
3.261975591E0,-2.009970903E0,7.465606928E-1,8.671588898E0
3.264082205E0,-1.976471543E0,7.322037220E-1,8.786444664E0
3.266188820E0,-1.971685886E0,7.417750359E-1,8.877371788E0
3.268295434E0,-1.981257200E0,7.513462901E-1,8.968298912E0
3.270402049E0,-1.976471543E0,7.513462901E-1,9.068798065E0
3.272508664E0,-1.990828395E0,7.657032609E-1,9.145368576E0
3.274615278E0,-2.000399828E0,7.800601721E-1,9.226723671E0
3.276721945E0,-1.995614052E0,7.896314859E-1,9.308079720E0
3.278828559E0,-2.005185366E0,8.231309652E-1,9.370293617E0
3.280935174E0,-2.000399828E0,8.327022791E-1,9.408578873E0
3.283041789E0,-2.014756680E0,8.566305041E-1,9.461220741E0
3.285148403E0,-2.014756680E0,8.901300430E-1,9.475577354E0
3.287255070E0,-2.057827473E0,9.188438654E-1,9.475577354E0
3.289361684E0,-2.062613010E0,9.475577474E-1,9.437292099E0
3.291468299E0,-2.072184324E0,9.906286001E-1,9.437292099E0
3.293574914E0,-2.100898266E0,1.033699393E0,9.413364410E0
3.295681528E0,-2.115255117E0,1.043270707E0,9.375079155E0
3.297788143E0,-2.139183521E0,1.067198873E0,9.346364975E0
3.299894757E0,-2.124826431E0,1.119840980E0,9.298508644E0
3.302001424E0,-2.134397745E0,1.182054400E0,9.255437851E0
3.304107987E0,-2.187039852E0,1.186840057E0,9.212367058E0
3.306214653E0,-2.244467735E0,1.162911773E0,9.174081802E0
3.308321268E0,-2.311466694E0,1.148554921E0,9.097511292E0
3.310427882E0,-2.383251429E0,1.138983607E0,9.044869423E0
3.312534497E0,-2.469393015E0,1.119840980E0,9.020941734E0
3.314641112E0,-2.545963287E0,1.110269666E0,8.977870941E0
3.316747726E0,-2.574677229E0,1.138983607E0,8.939585686E0
3.318854393E0,-2.603390932E0,1.172483087E0,8.915657043E0
3.320961007E0,-2.617748022E0,1.225125194E0,8.891729355E0
3.323067622E0,-2.612962246E0,1.272981644E0,8.872586250E0
3.325174237E0,-2.584248543E0,1.335195065E0,8.886942863E0
3.327280851E0,-2.593819857E0,1.397408366E0,8.934800148E0
3.329387466E0,-2.612962246E0,1.430907965E0,8.968298912E0
3.331494132E0,-2.622533560E0,1.483550072E0,9.001798630E0
3.333600695E0,-2.646461725E0,1.507478237E0,9.044869423E0
3.335707309E0,-2.636890650E0,1.555334687E0,9.078369141E0
3.337813976E0,-2.632104874E0,1.588834286E0,9.135796547E0
3.339920591E0,-2.598605394E0,1.622333765E0,9.164510727E0
3.342027205E0,-2.579462767E0,1.622333765E0,9.183652878E0
3.344133820E0,-2.555534601E0,1.641476393E0,9.241081238E0
3.346240434E0,-2.522035122E0,1.641476393E0,9.284152031E0
3.348347101E0,-2.493321180E0,1.651047587E0,9.308079720E0
3.350453716E0,-2.474178553E0,1.631905079E0,9.384650230E0
3.352560330E0,-2.455035925E0,1.627119422E0,9.446864128E0
3.354666945E0,-2.445464849E0,1.607976794E0,9.537791252E0
3.356773559E0,-2.421536446E0,1.593619823E0,9.609575272E0
3.358880174E0,-2.354537487E0,1.560120344E0,9.667003632E0
3.360986789E0,-2.330609322E0,1.531406522E0,9.748359680E0
3.363093403E0,-2.282752752E0,1.488335729E0,9.848857880E0
3.365200070E0,-2.249253273E0,1.435693622E0,9.963713646E0
3.367306684E0,-2.234896421E0,1.363908887E0,1.010728264E1
3.369413299E0,-2.215753794E0,1.306481123E0,1.025563812E1
3.371519914E0,-2.225325108E0,1.258624673E0,1.039442158E1
3.373626528E0,-2.220539331E0,1.191625714E0,1.053320503E1
3.375733195E0,-2.230110645E0,1.129412293E0,1.067677498E1
3.377839757E0,-2.234896421E0,1.091127157E0,1.085384369E1
3.379946372E0,-2.225325108E0,1.028913736E0,1.097348499E1
3.382053039E0,-2.191825628E0,9.762716293E-1,1.109791183E1
3.384159653E0,-2.177468538E0,9.475577474E-1,1.122712421E1
3.386266268E0,-2.153540373E0,8.901300430E-1,1.134197903E1
3.388372882E0,-2.153540373E0,8.662018180E-1,1.144247818E1
3.390479497E0,-2.124826431E0,8.327022791E-1,1.151904774E1
3.392586164E0,-2.110469580E0,8.087740541E-1,1.157647610E1
3.394692778E0,-2.091326952E0,7.848458290E-1,1.159561825E1
3.396799341E0,-2.067398787E0,7.944171429E-1,1.166261768E1
3.398906007E0,-1.990828395E0,7.848458290E-1,1.165304661E1
3.401012622E0,-1.952543259E0,7.752745152E-1,1.164347458E1
3.403119237E0,-1.899901152E0,7.561319470E-1,1.169133186E1
3.405225851E0,-1.832902193E0,7.513462901E-1,1.169611740E1
3.407332466E0,-1.780260086E0,7.322037220E-1,1.169133186E1
3.409439132E0,-1.741974831E0,6.939185858E-1,1.169611740E1
3.411545747E0,-1.684547186E0,6.556333899E-1,1.172483063E1
3.413652362E0,-1.622333765E0,6.077769399E-1,1.177268696E1
3.415758976E0,-1.555334687E0,5.407779217E-1,1.177747345E1
3.417865591E0,-1.512263894E0,4.737788737E-1,1.181097221E1
3.419972205E0,-1.464407444E0,3.828516304E-1,1.187797165E1
3.422078872E0,-1.445264935E0,2.967100143E-1,1.194497108E1
3.424185487E0,-1.430907965E0,1.914258152E-1,1.204068375E1
3.426292049E0,-1.445264935E0,7.178468257E-2,1.215553856E1
3.428398716E0,-1.464407444E0,-3.828516230E-2,1.229910851E1
3.430505330E0,-1.502692580E0,-1.674975902E-1,1.246660614E1
3.432611945E0,-1.588834286E0,-2.823530734E-1,1.262931824E1
3.434718559E0,-1.655833244E0,-4.211367965E-1,1.281117249E1
3.436825174E0,-1.713261008E0,-5.742774606E-1,1.298824120E1
3.438931789E0,-1.775474429E0,-7.082754970E-1,1.317488194E1
3.441038455E0,-1.832902193E0,-8.327022791E-1,1.330409431E1
3.443145070E0,-1.885544300E0,-1.000199914E0,1.345244884E1
3.445251684E0,-1.962114573E0,-1.148554921E0,1.357209015E1
3.447358299E0,-2.024327993E0,-1.272981644E0,1.371087360E1
3.449464914E0,-2.110469580E0,-1.411765337E0,1.379701519E1
3.451571528E0,-2.182254314E0,-1.555334687E0,1.386880016E1
3.453678143E0,-2.234896421E0,-1.689332843E0,1.393101311E1
3.455784757E0,-2.282752752E0,-1.813759565E0,1.397408390E1
3.457891424E0,-2.306680918E0,-1.909472466E0,1.401236916E1
3.459998039E0,-2.306680918E0,-2.014756680E0,1.401236916E1
3.462104653E0,-2.263610125E0,-2.091326952E0,1.401715469E1
3.464211268E0,-2.220539331E0,-2.105684042E0,1.398365593E1
3.466317882E0,-2.177468538E0,-2.143969059E0,1.391665649E1
3.468424497E0,-2.148754835E0,-2.158325911E0,1.383530045E1
3.470531112E0,-2.100898266E0,-2.163111687E0,1.373001671E1
3.472637778E0,-2.076970100E0,-2.158325911E0,1.360080433E1
3.474744393E0,-2.062613010E0,-2.129612207E0,1.348116302E1
3.476851007E0,-2.072184324E0,-2.105684042E0,1.334237862E1
3.478957622E0,-2.072184324E0,-2.072184324E0,1.319880962E1
3.481064237E0,-2.053041935E0,-2.014756680E0,1.301216984E1
3.483170851E0,-2.048256159E0,-1.942971945E0,1.285424328E1
3.485277518E0,-2.019542217E0,-1.899901152E0,1.266281700E1
3.487384132E0,-1.981257200E0,-1.828116536E0,1.245703506E1
3.489490747E0,-1.933400750E0,-1.737189293E0,1.227517986E1
3.491597362E0,-1.890329838E0,-1.674975872E0,1.205025482E1
3.493703976E0,-1.861616015E0,-1.598405480E0,1.184925747E1
3.495810591E0,-1.813759565E0,-1.536192179E0,1.164347458E1
3.497917205E0,-1.785045743E0,-1.464407444E0,1.148554897E1
3.500023872E0,-1.727617979E0,-1.378265858E0,1.128933716E1
3.502130487E0,-1.655833244E0,-1.320838094E0,1.115533924E1
3.504237101E0,-1.574477315E0,-1.234696507E0,1.094955635E1
3.506343716E0,-1.493121386E0,-1.153340459E0,1.078205872E1
3.508450330E0,-1.421336651E0,-1.071984529E0,1.063370419E1
3.510556945E0,-1.344766378E0,-9.619147182E-1,1.045184898E1
3.512663559E0,-1.229910851E0,-8.566305041E-1,1.031306553E1
3.514770174E0,-1.158126116E0,-7.609176040E-1,1.017428207E1
3.516876841E0,-1.100698471E0,-6.652047038E-1,1.003071213E1
3.518983455E0,-1.048056364E0,-5.790630579E-1,9.901499748E0
3.521090070E0,-9.762716293E-1,-4.929214716E-1,9.791430473E0
3.523196684E0,-9.140582681E-1,-4.067798555E-1,9.738788605E0
3.525303299E0,-8.470591903E-1,-3.302095234E-1,9.734002113E0
3.527409914E0,-7.369893789E-1,-2.727817893E-1,9.738788605E0
3.529516528E0,-6.604190469E-1,-1.818545163E-1,9.738788605E0
3.531623143E0,-5.694918036E-1,-9.571290761E-2,9.786644936E0
3.533729809E0,-4.594219327E-1,-2.871387079E-2,9.848857880E0
3.535836372E0,-3.637090325E-1,8.135596663E-2,9.872786522E0
3.537943039E0,-2.536391914E-1,1.674975902E-1,9.891928673E0
3.540049653E0,-1.579262912E-1,2.201396823E-1,9.915857315E0
3.542156268E0,-6.221338734E-2,2.679961324E-1,9.958928108E0
3.544262882E0,2.392822690E-2,3.349951804E-1,9.973284721E0
3.546369497E0,1.052841991E-1,3.732803464E-1,1.001156998E1
3.548476164E0,1.962114573E-1,4.115654826E-1,1.004985523E1
3.550582778E0,2.775674164E-1,4.354937077E-1,1.007856941E1
3.552689393E0,3.780659735E-1,4.737788737E-1,1.011685371E1
3.554796007E0,4.450650215E-1,4.785645306E-1,1.012642574E1
3.556902622E0,4.977070987E-1,4.881358147E-1,1.014078236E1
3.559009289E0,5.503492355E-1,4.929214716E-1,1.018385315E1
3.561115851E0,5.503492355E-1,4.689932466E-1,1.023170948E1
3.563222518E0,5.503492355E-1,4.211367965E-1,1.024128056E1
3.565329132E0,5.599204898E-1,3.828516304E-1,1.031306553E1
3.567435747E0,5.264210105E-1,3.397808075E-1,1.034177971E1
3.569542362E0,5.168496966E-1,3.110669553E-1,1.033699417E1
3.571648976E0,5.120640397E-1,2.488535494E-1,1.036570740E1
3.573755643E0,5.072783828E-1,2.249253243E-1,1.040399265E1
3.575862205E0,4.594219327E-1,2.105683982E-1,1.040399265E1
3.577968872E0,4.402793646E-1,1.627119333E-1,1.042313576E1
3.580075434E0,4.211367965E-1,1.387837082E-1,1.043270683E1
3.582182101E0,3.924229145E-1,1.052841991E-1,1.042792130E1
3.584288716E0,3.445664644E-1,6.699903309E-2,1.040877819E1
3.586395330E0,3.062812984E-1,2.392822690E-2,1.038006496E1
3.588501945E0,2.536391914E-1,0.000000000E0,1.036570740E1
3.590608612E0,1.962114573E-1,-6.221338734E-2,1.029392338E1
3.592715174E0,1.148554832E-1,-9.571290761E-2,1.026042366E1
3.594821789E0,2.392822690E-2,-1.387837082E-1,1.021735287E1
3.596928455E0,-5.264209956E-2,-2.057827413E-1,1.015992451E1
3.599035070E0,-1.148554832E-1,-2.536391914E-1,1.008335495E1
3.601141684E0,-2.009970993E-1,-2.919243574E-1,9.982855797E0
3.603248299E0,-2.727817893E-1,-3.062812984E-1,9.915857315E0
3.605354914E0,-3.541377485E-1,-3.397808075E-1,9.791430473E0
3.607461528E0,-4.211367965E-1,-3.732803464E-1,9.676574707E0
3.609568143E0,-4.689932466E-1,-3.876372576E-1,9.561718941E0
3.611674809E0,-5.264210105E-1,-3.972085714E-1,9.442078590E0
3.613781424E0,-5.790630579E-1,-4.211367965E-1,9.312865257E0
3.615888039E0,-6.460621357E-1,-4.307080805E-1,9.174081802E0
3.617994653E0,-7.130611539E-1,-4.354937077E-1,9.020941734E0
3.620101320E0,-7.800601721E-1,-4.594219327E-1,8.910871506E0
3.622207882E0,-8.470591903E-1,-4.498506486E-1,8.767302513E0
3.624314497E0,-9.188438654E-1,-4.211367965E-1,8.604590416E0
3.626421164E0,-9.667003751E-1,-3.876372576E-1,8.461020470E0
3.628527778E0,-1.014556766E0,-3.637090325E-1,8.336593628E0
3.630634393E0,-1.038485050E0,-3.302095234E-1,8.202595711E0
3.632741007E0,-1.048056364E0,-2.775674164E-1,8.068597794E0
3.634847622E0,-1.071984529E0,-2.488535494E-1,7.920242786E0
3.636954289E0,-1.062413216E0,-1.866401732E-1,7.776673794E0
3.639060851E0,-1.057627559E0,-1.435693651E-1,7.666603565E0
3.641167518E0,-1.062413216E0,-8.614161611E-2,7.523034573E0
3.643274132E0,-1.067198873E0,-4.307080805E-2,7.403393269E0
3.645380747E0,-1.076770186E0,4.785645287E-3,7.283751965E0
3.647487362E0,-1.091127157E0,4.785645381E-2,7.159325123E0
3.649593976E0,-1.105484009E0,1.100698411E-1,7.044469833E0
3.651700591E0,-1.100698471E0,1.435693651E-1,6.939185619E0
3.653807205E0,-1.110269666E0,2.009970993E-1,6.829115868E0
3.655913872E0,-1.115055323E0,2.775674164E-1,6.747759819E0
3.658020487E0,-1.110269666E0,3.302095234E-1,6.637690067E0
3.660127101E0,-1.119840980E0,4.067798555E-1,6.551548481E0
3.662233716E0,-1.119840980E0,4.833501875E-1,6.489335060E0
3.664340330E0,-1.100698471E0,5.359922647E-1,6.441478729E0
3.666446945E0,-1.095912814E0,6.269195080E-1,6.374479294E0
3.668553612E0,-1.062413216E0,6.939185858E-1,6.340980053E0
3.670660226E0,-1.043270707E0,7.513462901E-1,6.288337708E0
3.672766841E0,-1.038485050E0,7.992027402E-1,6.226124287E0
3.674873455E0,-1.028913736E0,8.566305041E-1,6.183053493E0
3.676980070E0,-1.038485050E0,9.092726111E-1,6.120840549E0
3.679086684E0,-1.043270707E0,9.619147182E-1,6.077769279E0
3.681193299E0,-1.057627559E0,1.000199914E0,6.020341873E0
3.683299914E0,-1.067198873E0,1.033699393E0,5.991627693E0
3.685406580E0,-1.052842021E0,1.081555843E0,5.953342915E0
3.687513195E0,-1.071984529E0,1.095912814E0,5.938985825E0
3.689619809E0,-1.071984529E0,1.124626637E0,5.924628735E0
3.691726424E0,-1.052842021E0,1.172483087E0,5.924628735E0
3.693833039E0,-1.038485050E0,1.205982566E0,5.929414749E0
3.695939653E0,-1.086341500E0,1.220339537E0,5.953342915E0
3.698046268E0,-1.081555843E0,1.234696507E0,5.972485542E0
3.700152882E0,-1.095912814E0,1.239482164E0,5.986842155E0
3.702259497E0,-1.095912814E0,1.253839016E0,6.010770321E0
3.704366164E0,-1.100698471E0,1.263410330E0,6.025127411E0
3.706472778E0,-1.110269666E0,1.292124271E0,6.087340832E0
3.708579393E0,-1.105484009E0,1.306481123E0,6.116054535E0
3.710686007E0,-1.105484009E0,1.311266780E0,6.183053493E0
3.712792622E0,-1.095912814E0,1.344766378E0,6.226124287E0
3.714899237E0,-1.095912814E0,1.368694544E0,6.293123722E0
3.717005903E0,-1.095912814E0,1.378265858E0,6.379265308E0
3.719112466E0,-1.110269666E0,1.383051515E0,6.460621357E0
3.721219132E0,-1.115055323E0,1.397408366E0,6.513263226E0
3.723325747E0,-1.091127157E0,1.411765337E0,6.618547440E0
3.725432362E0,-1.115055323E0,1.416550994E0,6.695117950E0
3.727538976E0,-1.124626637E0,1.430907965E0,6.762116909E0
3.729645591E0,-1.119840980E0,1.416550994E0,6.853044033E0
3.731752205E0,-1.124626637E0,1.435693622E0,6.929614544E0
3.733858820E0,-1.124626637E0,1.440479279E0,7.015756130E0
3.735965487E0,-1.129412293E0,1.430907965E0,7.097112179E0
3.738072101E0,-1.129412293E0,1.416550994E0,7.178467751E0
3.740178716E0,-1.110269666E0,1.411765337E0,7.283751965E0
3.742285330E0,-1.110269666E0,1.392622828E0,7.365108013E0
3.744391945E0,-1.091127157E0,1.387837172E0,7.456035137E0
3.746498559E0,-1.067198873E0,1.373480201E0,7.527820110E0
3.748605174E0,-1.024128079E0,1.373480201E0,7.652246952E0
3.750711841E0,-1.014556766E0,1.344766378E0,7.719245911E0
3.752818455E0,-1.004985452E0,1.349551916E0,7.795815945E0
3.754925070E0,-9.762716293E-1,1.339980721E0,7.886743546E0
3.757031684E0,-9.619147182E-1,1.354337573E0,7.963313580E0
3.759138299E0,-9.762716293E-1,1.359123230E0,8.035098076E0
3.761244914E0,-9.427721500E-1,1.354337573E0,8.106883049E0
3.763351528E0,-9.667003751E-1,1.354337573E0,8.202595711E0
3.765458143E0,-9.523434043E-1,1.339980721E0,8.283951759E0
3.767564757E0,-9.906286001E-1,1.335195065E0,8.365307808E0
3.769671424E0,-1.019342422E0,1.325623751E0,8.446663857E0
3.771778039E0,-1.033699393E0,1.311266780E0,8.542376518E0
3.773884653E0,-1.038485050E0,1.277767301E0,8.666803360E0
3.775991268E0,-1.043270707E0,1.272981644E0,8.757730484E0
3.778097882E0,-1.038485050E0,1.239482164E0,8.867800713E0
3.780204497E0,-1.014556766E0,1.220339537E0,8.953942299E0
3.782311112E0,-1.004985452E0,1.220339537E0,9.044869423E0
3.784417778E0,-1.009771109E0,1.196411371E0,9.116654396E0
3.786524393E0,-9.858429432E-1,1.162911773E0,9.183652878E0
3.788631007E0,-9.810572863E-1,1.153340459E0,9.269794464E0
3.790737622E0,-9.667003751E-1,1.124626637E0,9.332008362E0
3.792844237E0,-1.019342422E0,1.091127157E0,9.408578873E0
3.794950851E0,-1.052842021E0,1.071984529E0,9.470791817E0
3.797057466E0,-1.100698471E0,1.028913736E0,9.580862045E0
3.799164132E0,-1.167697430E0,9.906286001E-1,9.652647018E0
3.801270747E0,-1.229910851E0,9.427721500E-1,9.729216576E0
3.803377362E0,-1.287338614E0,9.284151793E-1,9.810572624E0
3.805483976E0,-1.330409408E0,8.805587292E-1,9.920642853E0
3.807590591E0,-1.373480201E0,8.374879360E-1,9.982855797E0
3.809697205E0,-1.416550994E0,8.231309652E-1,1.004985523E1
3.811803820E0,-1.402194023E0,7.465606928E-1,1.009771156E1
3.813910434E0,-1.287338614E0,6.317051649E-1,1.018385315E1
3.816017101E0,-1.177268744E0,5.120640397E-1,1.034177971E1
3.818123716E0,-1.383051515E0,4.881358147E-1,1.041835022E1
3.820230330E0,-1.727617979E0,4.833501875E-1,1.039920712E1
3.822336945E0,-1.995614052E0,4.737788737E-1,1.030827999E1
3.824443559E0,-2.129612207E0,5.024927258E-1,1.028435135E1
3.826550174E0,-2.158325911E0,5.216353536E-1,1.027956581E1
3.828656789E0,-2.153540373E0,5.503492355E-1,1.028435135E1
3.830763403E0,-2.196611166E0,5.312066078E-1,1.031785107E1
3.832870070E0,-2.234896421E0,5.264210105E-1,1.034177971E1
3.834976684E0,-2.258824587E0,5.312066078E-1,1.031785107E1
3.837083299E0,-2.292324066E0,5.168496966E-1,1.029392338E1
3.839189914E0,-2.301895380E0,5.120640397E-1,1.028913784E1
3.841296528E0,-2.321038008E0,5.120640397E-1,1.027956581E1
3.843403143E0,-2.268395901E0,5.216353536E-1,1.026999474E1
3.845509757E0,-2.244467735E0,5.312066078E-1,1.026999474E1
3.847616372E0,-2.187039852E0,5.407779217E-1,1.023649502E1
3.849723039E0,-2.129612207E0,5.742774606E-1,1.023170948E1
3.851829653E0,-2.048256159E0,5.886343718E-1,1.023649502E1
3.853936268E0,-2.009970903E0,6.029912829E-1,1.026042366E1
3.856042882E0,-1.933400750E0,6.269195080E-1,1.026520920E1
3.858149497E0,-1.909472466E0,6.604190469E-1,1.028435135E1
3.860256112E0,-1.952543259E0,7.082754970E-1,1.026520920E1
3.862362726E0,-2.005185366E0,7.513462901E-1,1.025563812E1
3.864469341E0,-2.038684845E0,8.279166222E-1,1.020299530E1
3.866575955E0,-2.048256159E0,8.662018180E-1,1.022213840E1
3.868682622E0,-2.033899307E0,8.805587292E-1,1.025563812E1
3.870789237E0,-2.086541414E0,9.044869542E-1,1.027478027E1
3.872895851E0,-2.139183521E0,9.284151793E-1,1.031785107E1
3.875002466E0,-2.210968018E0,9.571290612E-1,1.036092186E1
3.877109080E0,-2.263610125E0,9.762716293E-1,1.038963604E1
3.879215695E0,-2.297109842E0,9.810572863E-1,1.044706345E1
3.881322362E0,-2.311466694E0,9.571290612E-1,1.050449181E1
3.883428976E0,-2.306680918E0,9.332008362E-1,1.063370419E1
3.885535591E0,-2.306680918E0,8.757730722E-1,1.071506023E1
3.887642205E0,-2.330609322E0,8.374879360E-1,1.078205872E1
3.889748820E0,-2.325823545E0,7.609176040E-1,1.090170002E1
3.891855434E0,-2.335394859E0,6.939185858E-1,1.101177025E1
3.893962101E0,-2.335394859E0,6.269195080E-1,1.111705399E1
3.896068716E0,-2.354537487E0,5.551348329E-1,1.122712421E1
3.898175330E0,-2.378465652E0,4.881358147E-1,1.135633659E1
3.900281945E0,-2.426322222E0,4.259224236E-1,1.144726372E1
3.902388559E0,-2.478964329E0,3.828516304E-1,1.151904774E1
3.904495174E0,-2.560320139E0,3.349951804E-1,1.161954689E1
3.906601789E0,-2.670390129E0,3.397808075E-1,1.167218876E1
3.908708403E0,-2.746960402E0,3.589234054E-1,1.171525955E1
3.910815018E0,-2.794816732E0,3.972085714E-1,1.178225899E1
3.912921632E0,-2.871387243E0,4.546363056E-1,1.182054424E1
3.915028247E0,-2.976671457E0,5.168496966E-1,1.185404301E1
3.917134914E0,-3.038884640E0,5.982056856E-1,1.190668583E1
3.919241528E0,-3.125026464E0,6.652047038E-1,1.194497108E1
3.921348143E0,-3.187239647E0,7.322037220E-1,1.195454216E1
3.923454757E0,-3.249453068E0,8.183453679E-1,1.196889877E1
3.925561372E0,-3.268595695E0,8.949156404E-1,1.198325539E1
3.927667987E0,-3.297309637E0,9.810572863E-1,1.194018459E1
3.929774601E0,-3.278167009E0,1.081555843E0,1.190190029E1
3.931881268E0,-3.244667530E0,1.143769264E0,1.183011532E1
3.933987882E0,-3.187239647E0,1.225125194E0,1.175354481E1
3.936094497E0,-3.105883837E0,1.311266780E0,1.165783215E1
3.938201112E0,-3.019742250E0,1.383051515E0,1.154297638E1
3.940307726E0,-2.933600664E0,1.454836130E0,1.138026428E1
3.942414341E0,-2.809173822E0,1.531406522E0,1.126062298E1
3.944520955E0,-2.675175667E0,1.588834286E0,1.109312534E1
3.946627570E0,-2.531606436E0,1.646261930E0,1.096869946E1
3.948734237E0,-2.397608280E0,1.674975872E0,1.083948612E1
3.950840851E0,-2.254039049E0,1.689332843E0,1.071506023E1
3.952947466E0,-2.076970100E0,1.689332843E0,1.064327526E1
3.955054080E0,-1.909472466E0,1.655833244E0,1.056191921E1
3.957160695E0,-1.732403636E0,1.598405480E0,1.054756260E1
3.959267309E0,-1.574477315E0,1.502692580E0,1.056670475E1
3.961373924E0,-1.435693622E0,1.373480201E0,1.064806080E1
3.963480539E0,-1.320838094E0,1.186840057E0,1.077727318E1
3.965587205E0,-1.244267821E0,9.667003751E-1,1.097827053E1
3.967693820E0,-1.210768223E0,7.465606928E-1,1.125583744E1
3.969800434E0,-1.220339537E0,4.881358147E-1,1.158126163E1
3.971907049E0,-1.249053478E0,1.914258152E-1,1.190190029E1
3.974013664E0,-1.330409408E0,-9.571290761E-2,1.225603771E1
3.976120278E0,-1.430907965E0,-3.828516304E-1,1.261496067E1
3.978226893E0,-1.517049551E0,-6.747759581E-1,1.301216984E1
3.980333507E0,-1.612762451E0,-9.619147182E-1,1.336630726E1
3.982440122E0,-1.727617979E0,-1.225125194E0,1.372044468E1
3.984546737E0,-1.871187329E0,-1.483550072E0,1.403151226E1
3.986653403E0,-2.014756680E0,-1.722832322E0,1.434257889E1
3.988760018E0,-2.182254314E0,-1.919043779E0,1.462493229E1
3.990866632E0,-2.344966173E0,-2.105684042E0,1.487857151E1
3.992973247E0,-2.507678032E0,-2.230110645E0,1.511785316E1
3.995079862E0,-2.636890650E0,-2.301895380E0,1.527577972E1
3.997186528E0,-2.766103029E0,-2.368894339E0,1.542413521E1
3.999293143E0,-2.866601467E0,-2.378465652E0,1.553899002E1
4.001399757E0,-2.938386202E0,-2.364108801E0,1.563948917E1
4.003506372E0,-3.000599623E0,-2.263610125E0,1.562513161E1
4.005612987E0,-3.029313564E0,-2.177468538E0,1.556291866E1
4.007719601E0,-3.019742250E0,-2.053041935E0,1.544327736E1
4.009826216E0,-3.005385160E0,-1.904686809E0,1.523749447E1
4.011932830E0,-2.981456995E0,-1.741974831E0,1.495035553E1
4.014039445E0,-2.914458036E0,-1.560120344E0,1.458186150E1
4.016146059E0,-2.837887764E0,-1.373480201E0,1.413201046E1
4.018252726E0,-2.780459881E0,-1.172483087E0,1.361037540E1
4.020359341E0,-2.718246460E0,-9.571290612E-1,1.307438278E1
4.022465955E0,-2.641676188E0,-7.322037220E-1,1.253839111E1
4.024572570E0,-2.627319336E0,-5.216353536E-1,1.199761295E1
4.026679184E0,-2.569891453E0,-3.206382394E-1,1.149033451E1
4.028785851E0,-2.522035122E0,-1.244267747E-1,1.103569794E1
4.030892466E0,-2.459821701E0,1.004985496E-1,1.060977554E1
4.032999080E0,-2.397608280E0,2.632105052E-1,1.020778179E1
4.035105695E0,-2.311466694E0,4.594219327E-1,9.877572060E0
4.037212309E0,-2.234896421E0,6.173482537E-1,9.533005714E0
4.039318924E0,-2.177468538E0,7.657032609E-1,9.236295700E0
4.041425539E0,-2.091326952E0,9.379864931E-1,8.963513374E0
4.043532153E0,-2.038684845E0,1.052842021E0,8.690732002E0
4.045638768E0,-1.995614052E0,1.186840057E0,8.427521706E0
4.047745382E0,-1.962114573E0,1.301695466E0,8.197810173E0
4.049852049E0,-1.957328916E0,1.378265858E0,7.987242222E0
4.051958664E0,-1.947757602E0,1.464407444E0,7.786244869E0
4.054065278E0,-1.976471543E0,1.526620865E0,7.618747234E0
4.056171893E0,-1.995614052E0,1.588834286E0,7.465606689E0
4.058278507E0,-2.009970903E0,1.622333765E0,7.365108013E0
4.060385122E0,-2.019542217E0,1.631905079E0,7.278966427E0
4.062491789E0,-2.024327993E0,1.641476393E0,7.235895634E0
4.064598403E0,-2.053041935E0,1.627119422E0,7.231110096E0
4.066705018E0,-2.086541414E0,1.564906001E0,7.264609337E0
4.068811632E0,-2.105684042E0,1.493121386E0,7.312466145E0
4.070918247E0,-2.139183521E0,1.430907965E0,7.398607731E0
4.073024862E0,-2.191825628E0,1.339980721E0,7.532605648E0
4.075131476E0,-2.244467735E0,1.253839016E0,7.657032490E0
4.077238091E0,-2.311466694E0,1.129412293E0,7.800601959E0
4.079344757E0,-2.335394859E0,1.043270707E0,8.039883614E0
4.081451372E0,-2.335394859E0,9.044869542E-1,8.231309891E0
4.083557987E0,-2.359323025E0,7.513462901E-1,8.499305725E0
4.085664601E0,-2.349751949E0,6.173482537E-1,8.743373871E0
4.087771216E0,-2.364108801E0,4.737788737E-1,8.992227554E0
4.089877830E0,-2.359323025E0,3.158525825E-1,9.193224907E0
4.091984445E0,-2.368894339E0,1.627119333E-1,9.351150513E0
4.094091059E0,-2.373680115E0,2.871387079E-2,9.475577354E0
4.096197726E0,-2.378465652E0,-9.571290761E-2,9.590433121E0
4.098304341E0,-2.397608280E0,-2.057827413E-1,9.724431038E0
4.100410955E0,-2.397608280E0,-3.158525825E-1,9.801001549E0
4.102517570E0,-2.388036966E0,-3.828516304E-1,9.877572060E0
4.104624184E0,-2.388036966E0,-4.546363056E-1,9.987641335E0
4.106730799E0,-2.407179594E0,-5.072783828E-1,1.003071213E1
4.108837414E0,-2.421536446E0,-5.551348329E-1,1.005942631E1
4.110944028E0,-2.421536446E0,-5.982056856E-1,1.010249710E1
4.113050695E0,-2.416750908E0,-6.269195080E-1,1.015992451E1
4.115157257E0,-2.402393818E0,-6.508477330E-1,1.015992451E1
4.117263872E0,-2.411965132E0,-6.699903607E-1,1.017428207E1
4.119370539E0,-2.416750908E0,-6.843472719E-1,1.013599682E1
4.121477153E0,-2.411965132E0,-6.747759581E-1,1.009771156E1
4.123583768E0,-2.388036966E0,-6.652047038E-1,1.004985523E1
4.125690382E0,-2.359323025E0,-6.460621357E-1,9.958928108E0
4.127796997E0,-2.335394859E0,-6.173482537E-1,9.848857880E0
4.129903612E0,-2.292324066E0,-5.886343718E-1,9.729216576E0
4.132010226E0,-2.244467735E0,-5.359922647E-1,9.580862045E0
4.134116893E0,-2.206182480E0,-4.881358147E-1,9.451649666E0
4.136223507E0,-2.177468538E0,-4.163511395E-1,9.303294182E0
4.138330122E0,-2.143969059E0,-3.684946895E-1,9.121439934E0
4.140436737E0,-2.120040894E0,-2.967100143E-1,8.963513374E0
4.142543351E0,-2.091326952E0,-2.392822653E-1,8.805587769E0
4.144649966E0,-2.091326952E0,-1.770688742E-1,8.652446747E0
4.146756580E0,-2.048256159E0,-1.100698411E-1,8.494520187E0
4.148863247E0,-2.019542217E0,-1.435693540E-2,8.384450912E0
4.150969862E0,-1.981257200E0,6.221338734E-2,8.231309891E0
4.153076424E0,-1.971685886E0,1.244267747E-1,8.116454124E0
4.155183091E0,-1.962114573E0,2.201396823E-1,7.987242222E0
4.157289705E0,-1.942971945E0,2.967100143E-1,7.872386456E0
4.159396320E0,-1.933400750E0,3.732803464E-1,7.791030407E0
4.161502934E0,-1.933400750E0,4.307080805E-1,7.690532207E0
4.163609549E0,-1.923829436E0,5.120640397E-1,7.599604607E0
4.165716164E0,-1.928615093E0,5.455635786E-1,7.503891945E0
4.167822830E0,-1.933400750E0,6.029912829E-1,7.408178806E0
4.169929393E0,-1.923829436E0,6.269195080E-1,7.312466145E0
4.172036059E0,-1.923829436E0,6.843472719E-1,7.188039303E0
4.174142674E0,-1.928615093E0,7.130611539E-1,7.101897717E0
4.176249289E0,-1.914258122E0,7.369893789E-1,7.006184578E0
4.178355903E0,-1.909472466E0,7.848458290E-1,6.915257454E0
4.180462570E0,-1.909472466E0,8.183453679E-1,6.829115868E0
4.182569132E0,-1.909472466E0,8.662018180E-1,6.747759819E0
4.184675747E0,-1.919043779E0,8.709874153E-1,6.656832695E0
4.186782362E0,-1.923829436E0,8.949156404E-1,6.561119556E0
4.188889028E0,-1.933400750E0,8.997012973E-1,6.460621357E0
4.190995643E0,-1.986042738E0,9.140582681E-1,6.398407936E0
4.193102257E0,-1.986042738E0,9.332008362E-1,6.317051888E0
4.195208872E0,-2.009970903E0,9.619147182E-1,6.245266914E0
4.197315487E0,-2.057827473E0,9.427721500E-1,6.173482418E0
4.199422101E0,-2.100898266E0,9.332008362E-1,6.116054535E0
4.201528716E0,-2.129612207E0,9.236295223E-1,6.077769279E0
4.203635330E0,-2.172683001E0,9.332008362E-1,6.001199245E0
4.205741945E0,-2.215753794E0,8.997012973E-1,5.962913990E0
4.207848612E0,-2.254039049E0,8.853443861E-1,5.929414749E0
4.209955226E0,-2.268395901E0,8.853443861E-1,5.857629776E0
4.212061841E0,-2.282752752E0,8.709874153E-1,5.824130535E0
4.214168455E0,-2.316252232E0,8.518448472E-1,5.795416355E0
4.216275070E0,-2.330609322E0,8.518448472E-1,5.785845280E0
4.218381684E0,-2.364108801E0,8.422735929E-1,5.757131100E0
4.220488299E0,-2.383251429E0,8.470591903E-1,5.728417397E0
4.222594966E0,-2.383251429E0,8.374879360E-1,5.737988472E0
4.224701528E0,-2.407179594E0,8.374879360E-1,5.694917679E0
4.226808195E0,-2.397608280E0,8.662018180E-1,5.666203976E0
4.228914809E0,-2.416750908E0,8.757730722E-1,5.656632900E0
4.231021424E0,-2.402393818E0,9.044869542E-1,5.651846886E0
4.233128039E0,-2.402393818E0,9.332008362E-1,5.613562107E0
4.235234653E0,-2.407179594E0,9.571290612E-1,5.603990555E0
4.237341268E0,-2.392822742E0,9.858429432E-1,5.599205017E0
4.239447934E0,-2.373680115E0,1.014556766E0,5.575276852E0
4.241554549E0,-2.349751949E0,1.052842021E0,5.599205017E0
4.243661164E0,-2.330609322E0,1.086341500E0,5.594419479E0
4.245767778E0,-2.311466694E0,1.124626637E0,5.627918720E0
4.247874393E0,-2.292324066E0,1.172483087E0,5.642275810E0
4.249981007E0,-2.254039049E0,1.205982566E0,5.690132141E0
4.252087622E0,-2.234896421E0,1.249053478E0,5.723631859E0
4.254194237E0,-2.206182480E0,1.277767301E0,5.785845280E0
4.256300903E0,-2.182254314E0,1.320838094E0,5.852844238E0
4.258407518E0,-2.148754835E0,1.349551916E0,5.943771362E0
4.260514132E0,-2.120040894E0,1.392622828E0,6.029912949E0
4.262620747E0,-2.076970100E0,1.406979680E0,6.125626087E0
4.264727362E0,-2.053041935E0,1.435693622E0,6.226124287E0
4.266833976E0,-2.053041935E0,1.464407444E0,6.355337143E0
4.268940591E0,-2.053041935E0,1.464407444E0,6.474977970E0
4.271047205E0,-2.067398787E0,1.454836130E0,6.594619274E0
4.273153820E0,-2.062613010E0,1.440479279E0,6.728617191E0
4.275260487E0,-2.072184324E0,1.454836130E0,6.872186661E0
4.277367101E0,-2.105684042E0,1.421336651E0,6.982256413E0
4.279473716E0,-2.124826431E0,1.383051515E0,7.101897717E0
4.281580330E0,-2.153540373E0,1.339980721E0,7.226324558E0
4.283686945E0,-2.210968018E0,1.306481123E0,7.365108013E0
4.285793559E0,-2.268395901E0,1.234696507E0,7.513463020E0
4.287900174E0,-2.354537487E0,1.153340459E0,7.666603565E0
4.290006789E0,-2.431107759E0,1.067198873E0,7.829315662E0
4.292113403E0,-2.545963287E0,9.762716293E-1,8.020741463E0
4.294220070E0,-2.675175667E0,8.853443861E-1,8.212167740E0
4.296326684E0,-2.794816732E0,7.465606928E-1,8.422736168E0
4.298433299E0,-2.900100946E0,6.173482537E-1,8.595019341E0
4.300539914E0,-3.010170937E0,4.737788737E-1,8.743373871E0
4.302646528E0,-3.101098061E0,3.206382394E-1,8.872586250E0
4.304753143E0,-3.168097258E0,1.722832322E-1,9.035298347E0
4.306859757E0,-3.215953588E0,4.307080805E-2,9.145368576E0
4.308966372E0,-3.249453068E0,-8.614161611E-2,9.250652313E0
4.311072987E0,-3.292523861E0,-1.722832322E-1,9.322437286E0
4.313179601E0,-3.326023579E0,-2.392822653E-1,9.422935486E0
4.315286268E0,-3.345165968E0,-3.110669553E-1,9.466006279E0
4.317392882E0,-3.373879910E0,-3.493520916E-1,9.518648148E0
4.319499497E0,-3.402593851E0,-3.589234054E-1,9.561718941E0
