"Time (s)","Gyroscope x (rad/s)","Gyroscope y (rad/s)","Gyroscope z (rad/s)"
6.828351000E-3,-6.543889046E-1,-1.087339282E0,8.888082206E-2
8.934966000E-3,-6.922625303E-1,-1.078787208E0,1.267544478E-1
1.104361200E-2,-7.252492309E-1,-1.069013357E0,1.646280587E-1
1.314970500E-2,-7.533490062E-1,-1.048243999E0,1.988364905E-1
1.525553900E-2,-7.826704979E-1,-1.028696299E0,2.306014597E-1
1.736147600E-2,-8.046616316E-1,-1.007926941E0,2.611446977E-1
1.946809100E-2,-8.217658401E-1,-9.773836732E-1,2.843575478E-1
2.157470500E-2,-8.339831233E-1,-9.492838383E-1,3.051269650E-1
2.368132000E-2,-8.413135409E-1,-9.260709882E-1,3.210094273E-1
2.578835100E-2,-8.388700485E-1,-8.979712129E-1,3.307832778E-1
2.789460100E-2,-8.303179741E-1,-8.747583628E-1,3.344484568E-1
3.000121600E-2,-8.144354820E-1,-8.503237963E-1,3.332267404E-1
3.210783000E-2,-7.924443483E-1,-8.319978118E-1,3.271180987E-1
3.421444500E-2,-7.631227970E-1,-8.100066781E-1,3.161225319E-1
3.632111200E-2,-7.313578725E-1,-7.990111113E-1,3.002400398E-1
3.842772600E-2,-6.885973215E-1,-7.819069028E-1,2.819140851E-1
4.053434100E-2,-6.458367705E-1,-7.696896195E-1,2.587012351E-1
4.264095500E-2,-6.006327868E-1,-7.599157691E-1,2.354883701E-1
4.474762200E-2,-5.480984449E-1,-7.415898442E-1,2.086103261E-1
4.685423700E-2,-4.967857897E-1,-7.269290686E-1,1.780670881E-1
4.896085100E-2,-4.442514181E-1,-7.073814273E-1,1.487455666E-1
5.106746600E-2,-3.941605091E-1,-6.866120100E-1,1.169806048E-1
5.317408000E-2,-3.452913165E-1,-6.646208763E-1,8.521563560E-2
5.528225700E-2,-3.000873327E-1,-6.426297426E-1,5.345066637E-2
5.738736200E-2,-2.609919906E-1,-6.218603253E-1,2.412915789E-2
5.949397600E-2,-2.255618125E-1,-5.998691916E-1,-7.635809947E-3
6.160059100E-2,-1.962403059E-1,-5.815432668E-1,-3.695731983E-2
6.370720500E-2,-1.730274558E-1,-5.668824911E-1,-6.261363626E-2
6.581382000E-2,-1.510363221E-1,-5.473348498E-1,-8.582650125E-2
6.792043400E-2,-1.375972927E-1,-5.338957906E-1,-1.090393662E-1
7.002710100E-2,-1.278234571E-1,-5.180133581E-1,-1.310304999E-1
7.213371600E-2,-1.217148080E-1,-5.119046569E-1,-1.505781710E-1
7.424033000E-2,-1.229365394E-1,-5.094612241E-1,-1.701258421E-1
7.634694500E-2,-1.278234571E-1,-5.045742989E-1,-1.908952445E-1
7.845361200E-2,-1.388190240E-1,-5.106829405E-1,-2.079994529E-1
8.056022600E-2,-1.534797698E-1,-5.119046569E-1,-2.263254076E-1
8.266684100E-2,-1.742491722E-1,-5.131264329E-1,-2.422078848E-1
8.477345500E-2,-2.011272311E-1,-5.143481493E-1,-2.593120933E-1
8.688007000E-2,-2.255618125E-1,-5.094612241E-1,-2.739728391E-1
8.898673700E-2,-2.597702444E-1,-5.070177913E-1,-2.861901522E-1
9.109335100E-2,-2.927569449E-1,-5.033525825E-1,-2.959639728E-1
9.319996600E-2,-3.294088244E-1,-4.984656572E-1,-3.045161068E-1
9.530658000E-2,-3.660607338E-1,-4.911352694E-1,-3.069595397E-1
9.741324700E-2,-4.027126133E-1,-4.862483740E-1,-3.081812859E-1
9.951980900E-2,-4.369210303E-1,-4.764745235E-1,-3.045161068E-1
1.016264760E-1,-4.747946560E-1,-4.715875983E-1,-2.984074354E-1
1.037330910E-1,-5.114465356E-1,-4.630354941E-1,-2.898553312E-1
1.058397050E-1,-5.480984449E-1,-4.581485987E-1,-2.776380479E-1
1.079463200E-1,-5.871937871E-1,-4.483747482E-1,-2.654207349E-1
1.100529870E-1,-6.250674129E-1,-4.447095692E-1,-2.483165264E-1
1.121596010E-1,-6.629409790E-1,-4.373791814E-1,-2.324340492E-1
1.142662160E-1,-6.995928884E-1,-4.373791814E-1,-2.104429156E-1
1.163728300E-1,-7.338013053E-1,-4.324922562E-1,-1.933387071E-1
1.184794450E-1,-7.704532146E-1,-4.324922562E-1,-1.713475734E-1
1.205860590E-1,-8.022181988E-1,-4.276053309E-1,-1.530216336E-1
1.226927260E-1,-8.339831233E-1,-4.239401519E-1,-1.322522312E-1
1.247993410E-1,-8.620828986E-1,-4.288270772E-1,-1.127045527E-1
1.269059550E-1,-8.852958083E-1,-4.300487936E-1,-9.560033679E-2
1.290125700E-1,-9.072869420E-1,-4.386008978E-1,-7.849612087E-2
1.311192370E-1,-9.243911505E-1,-4.495964646E-1,-6.017018110E-2
1.332258510E-1,-9.427170753E-1,-4.667007029E-1,-4.550942779E-2
1.353324660E-1,-9.537126422E-1,-4.813614488E-1,-3.329212964E-2
1.374390800E-1,-9.634864926E-1,-4.911352694E-1,-2.107483521E-2
1.395456950E-1,-9.671516418E-1,-5.106829405E-1,-8.857538924E-3
1.416523090E-1,-9.671516418E-1,-5.351175666E-1,-3.054323897E-4
1.437589760E-1,-9.622647166E-1,-5.583304167E-1,7.024944760E-3
1.458655910E-1,-9.524909258E-1,-5.766563416E-1,1.313359290E-2
1.479728820E-1,-9.390518665E-1,-6.036871076E-1,1.908952370E-2
1.500788200E-1,-9.195042253E-1,-6.293434501E-1,2.275471389E-2
1.521854340E-1,-8.950695992E-1,-6.476693749E-1,2.397644334E-2
1.542921010E-1,-8.633046746E-1,-6.733257174E-1,2.641990222E-2
1.563987160E-1,-8.327614069E-1,-6.916516423E-1,2.764163166E-2
1.585053300E-1,-8.022181988E-1,-7.026472092E-1,2.764163166E-2
1.606119970E-1,-7.680097222E-1,-7.002037764E-1,2.641990222E-2
1.627186120E-1,-7.338013053E-1,-7.002037764E-1,2.397644334E-2
1.648252260E-1,-7.008146048E-1,-6.953168511E-1,2.275471389E-2
1.669318410E-1,-6.727148294E-1,-6.904299259E-1,2.153298259E-2
1.690384550E-1,-6.397281289E-1,-6.757691503E-1,2.031125315E-2
1.711451220E-1,-6.104066372E-1,-6.598866582E-1,2.153298259E-2
1.732516840E-1,-5.810851455E-1,-6.415607333E-1,2.153298259E-2
1.753583510E-1,-5.529853702E-1,-6.330085993E-1,2.397644334E-2
1.774649660E-1,-5.273290277E-1,-6.159043908E-1,2.764163166E-2
1.795715800E-1,-4.992292523E-1,-6.036871076E-1,3.008509055E-2
1.816781950E-1,-4.723511934E-1,-5.988001823E-1,3.619373962E-2
1.837848090E-1,-4.479165971E-1,-5.963567495E-1,4.230238497E-2
1.858914240E-1,-4.210385382E-1,-5.829176903E-1,4.718930274E-2
1.879980910E-1,-3.929387629E-1,-5.816959739E-1,5.329795182E-2
1.901047050E-1,-3.709476292E-1,-5.804742575E-1,5.818486959E-2
1.922113200E-1,-3.465130329E-1,-5.829176903E-1,6.307178736E-2
1.943179340E-1,-3.208567202E-1,-5.804742575E-1,6.551524997E-2
1.964245490E-1,-2.988655865E-1,-5.853611827E-1,6.795870513E-2
1.985312160E-1,-2.805396616E-1,-5.865828991E-1,6.918043643E-2
2.006378300E-1,-2.609919906E-1,-5.975784659E-1,7.040216774E-2
2.027444450E-1,-2.390008420E-1,-5.963567495E-1,6.795870513E-2
2.048510590E-1,-2.231183648E-1,-6.012436748E-1,6.918043643E-2
2.069577260E-1,-2.072358727E-1,-6.061306000E-1,6.551524997E-2
2.090643410E-1,-1.925751269E-1,-6.134609580E-1,6.185005978E-2
2.111709550E-1,-1.840230078E-1,-6.159043908E-1,5.574141070E-2
2.132776220E-1,-1.766926348E-1,-6.195695996E-1,4.718930274E-2
2.153842370E-1,-1.693622619E-1,-6.244565248E-1,3.619373962E-2
2.174908510E-1,-1.705839932E-1,-6.281217337E-1,2.764163166E-2
2.195974660E-1,-1.742491722E-1,-6.268999577E-1,1.908952370E-2
2.217040800E-1,-1.779143661E-1,-6.281217337E-1,1.298087649E-2
2.238106950E-1,-1.828012913E-1,-6.305651665E-1,9.315688163E-3
2.259173090E-1,-1.889099330E-1,-6.305651665E-1,8.093958721E-3
2.280239240E-1,-1.986837685E-1,-6.232348084E-1,8.093958721E-3
2.301305910E-1,-2.084576041E-1,-6.134609580E-1,1.053741761E-2
2.322372050E-1,-2.194531709E-1,-6.036871076E-1,1.298087649E-2
2.343438200E-1,-2.328922004E-1,-5.853611827E-1,1.664606482E-2
2.364504340E-1,-2.475529462E-1,-5.707004070E-1,2.519817278E-2
2.385571010E-1,-2.622137070E-1,-5.499309897E-1,3.130681813E-2
2.406637160E-1,-2.768744528E-1,-5.291616321E-1,3.741546720E-2
2.427703300E-1,-2.915352285E-1,-5.047270060E-1,4.352411628E-2
2.448769450E-1,-3.110828996E-1,-4.766272306E-1,4.841103405E-2
2.469836120E-1,-3.306305707E-1,-4.509709179E-1,5.574141070E-2
2.490902260E-1,-3.477347791E-1,-4.155407548E-1,5.940660089E-2
2.511968410E-1,-3.672824502E-1,-3.935496211E-1,6.429351866E-2
2.533034550E-1,-3.880518377E-1,-3.642281294E-1,6.918043643E-2
2.554100700E-1,-4.051560760E-1,-3.287979662E-1,7.162389904E-2
2.575166840E-1,-4.259254634E-1,-3.080285788E-1,7.406735420E-2
2.596233510E-1,-4.442514181E-1,-2.835939825E-1,7.651081681E-2
2.617299140E-1,-4.613556266E-1,-2.603811026E-1,7.773254067E-2
2.638365800E-1,-4.735729098E-1,-2.408334464E-1,7.895427197E-2
2.659431950E-1,-4.845684767E-1,-2.261726856E-1,7.895427197E-2
2.680498090E-1,-4.943423271E-1,-2.115119249E-1,7.895427197E-2
2.701564240E-1,-4.980075061E-1,-1.992946416E-1,7.895427197E-2
2.722630390E-1,-5.041161776E-1,-1.870773435E-1,7.773254067E-2
2.743697050E-1,-5.041161776E-1,-1.821904182E-1,7.773254067E-2
2.764763200E-1,-5.041161776E-1,-1.797469556E-1,7.651081681E-2
2.785829870E-1,-5.016726851E-1,-1.797469556E-1,7.895427197E-2
2.806896010E-1,-4.967857897E-1,-1.834121495E-1,7.895427197E-2
2.827962160E-1,-4.906771481E-1,-1.882990748E-1,7.895427197E-2
2.849028300E-1,-4.821250141E-1,-1.895207912E-1,8.017600328E-2
2.870094450E-1,-4.711294472E-1,-1.968511790E-1,8.139773458E-2
2.891160590E-1,-4.625773430E-1,-2.066250145E-1,8.261945844E-2
2.912227260E-1,-4.515817761E-1,-2.127336562E-1,8.384118974E-2
2.933293410E-1,-4.381427765E-1,-2.212857604E-1,8.628465235E-2
2.954359550E-1,-4.283689260E-1,-2.310595959E-1,8.750637621E-2
2.975425700E-1,-4.149298966E-1,-2.371682525E-1,8.872810751E-2
2.996492370E-1,-4.002691507E-1,-2.481638193E-1,8.994983882E-2
3.017557990E-1,-3.856084049E-1,-2.554942071E-1,8.872810751E-2
3.038624660E-1,-3.721693754E-1,-2.640463114E-1,8.994983882E-2
3.059690800E-1,-3.587303460E-1,-2.725984156E-1,8.994983882E-2
3.080756950E-1,-3.416261375E-1,-2.860374451E-1,9.239330143E-2
3.101823090E-1,-3.245218992E-1,-3.043633699E-1,9.483675659E-2
3.122889240E-1,-3.110828996E-1,-3.068068326E-1,9.483675659E-2
3.143955910E-1,-2.988655865E-1,-2.970330119E-1,9.483675659E-2
3.165022050E-1,-2.903134823E-1,-2.884808779E-1,9.239330143E-2
3.186088200E-1,-2.805396616E-1,-2.909243405E-1,9.117157012E-2
3.207154340E-1,-2.707658112E-1,-2.909243405E-1,8.994983882E-2
3.228220490E-1,-2.597702444E-1,-2.945895493E-1,8.750637621E-2
3.249286640E-1,-2.536616027E-1,-2.945895493E-1,8.261945844E-2
3.270353300E-1,-2.475529462E-1,-2.982547283E-1,7.895427197E-2
3.291419450E-1,-2.475529462E-1,-3.019199073E-1,7.284562290E-2
3.312485590E-1,-2.475529462E-1,-3.068068326E-1,6.429351866E-2
3.333552260E-1,-2.524398565E-1,-3.153589368E-1,5.696314201E-2
3.354618410E-1,-2.585485280E-1,-3.202458620E-1,4.718930274E-2
3.375684550E-1,-2.671006322E-1,-3.287979662E-1,3.985892609E-2
3.396750700E-1,-2.768744528E-1,-3.385718167E-1,3.252854943E-2
3.417816840E-1,-2.903134823E-1,-3.446804583E-1,2.519817278E-2
3.438882990E-1,-3.074176908E-1,-3.544542789E-1,1.786779426E-2
3.459949660E-1,-3.257436454E-1,-3.605629504E-1,1.420260593E-2
3.481015280E-1,-3.440696001E-1,-3.678933084E-1,9.315688163E-3
3.502081950E-1,-3.685041666E-1,-3.740019500E-1,3.207040019E-3
3.523148090E-1,-3.904953003E-1,-3.776671588E-1,-2.901607659E-3
3.544214240E-1,-4.124864340E-1,-3.886627257E-1,-6.566796452E-3
3.565280390E-1,-4.332558513E-1,-3.947713673E-1,-9.010255337E-3
3.586347050E-1,-4.564687014E-1,-4.008800089E-1,-1.145371422E-2
3.607413200E-1,-4.772381186E-1,-4.094321132E-1,-1.145371422E-2
3.628479340E-1,-4.931205809E-1,-4.179842174E-1,-1.023198478E-2
3.649545490E-1,-5.102248192E-1,-4.265363216E-1,-7.788525894E-3
3.670611640E-1,-5.236638188E-1,-4.228711426E-1,-5.345067009E-3
3.691678300E-1,-5.383245945E-1,-4.155407548E-1,-5.345067009E-3
3.712744450E-1,-5.517635942E-1,-4.155407548E-1,-2.901607659E-3
3.733810590E-1,-5.615374446E-1,-4.130973220E-1,-4.581485991E-4
3.754876740E-1,-5.639809370E-1,-4.094321132E-1,1.985310577E-3
3.775942890E-1,-5.713112950E-1,-4.045451880E-1,5.650499370E-3
3.797009030E-1,-5.713112950E-1,-4.008800089E-1,6.872228812E-3
3.818075700E-1,-5.652026534E-1,-3.947713673E-1,1.053741761E-2
3.839141840E-1,-5.627591610E-1,-3.862192631E-1,1.298087649E-2
3.860207990E-1,-5.542070866E-1,-3.813323379E-1,1.786779426E-2
3.881274140E-1,-5.444332361E-1,-3.752236962E-1,2.031125315E-2
3.902340800E-1,-5.358811021E-1,-3.630063832E-1,2.519817278E-2
3.923406950E-1,-5.175551772E-1,-3.544542789E-1,3.130681813E-2
3.944473090E-1,-5.053378940E-1,-3.471239209E-1,3.741546720E-2
3.965539240E-1,-4.833467603E-1,-3.324631453E-1,4.230238497E-2
3.986605390E-1,-4.674642682E-1,-3.300196826E-1,4.841103405E-2
4.007671530E-1,-4.479165971E-1,-3.202458620E-1,5.574141070E-2
4.028738200E-1,-4.259254634E-1,-3.165806830E-1,6.429351866E-2
4.049804340E-1,-4.075995386E-1,-3.116937578E-1,7.040216774E-2
4.070870490E-1,-3.856084049E-1,-3.092502952E-1,7.651081681E-2
4.091936640E-1,-3.623955250E-1,-3.080285788E-1,8.384118974E-2
4.113002780E-1,-3.416261375E-1,-3.043633699E-1,9.117157012E-2
4.134068930E-1,-3.208567202E-1,-3.055851161E-1,9.728021920E-2
4.155135590E-1,-2.988655865E-1,-3.104720116E-1,1.021671370E-1
4.176201740E-1,-2.768744528E-1,-3.153589368E-1,1.082757786E-1
4.197268410E-1,-2.561050653E-1,-3.226893246E-1,1.119409725E-1
4.218334030E-1,-2.353356630E-1,-3.312414289E-1,1.156061590E-1
4.239400180E-1,-2.145662606E-1,-3.349066079E-1,1.180496216E-1
4.260466320E-1,-1.962403059E-1,-3.410152495E-1,1.192713454E-1
4.281532990E-1,-1.779143661E-1,-3.434587121E-1,1.204930767E-1
4.302599140E-1,-1.595884264E-1,-3.446804583E-1,1.217148080E-1
4.323665280E-1,-1.461493969E-1,-3.483456373E-1,1.217148080E-1
4.344731950E-1,-1.302669197E-1,-3.471239209E-1,1.217148080E-1
4.365798090E-1,-1.156061590E-1,-3.434587121E-1,1.217148080E-1
4.386864240E-1,-1.058323234E-1,-3.410152495E-1,1.217148080E-1
4.407930390E-1,-9.728021920E-2,-3.410152495E-1,1.217148080E-1
4.428997050E-1,-9.117157012E-2,-3.385718167E-1,1.204930767E-1
4.450062680E-1,-8.750637621E-2,-3.373500705E-1,1.192713454E-1
4.471129340E-1,-8.750637621E-2,-3.349066079E-1,1.143844277E-1
4.492195490E-1,-8.994983882E-2,-3.312414289E-1,1.119409725E-1
4.513261640E-1,-9.605848789E-2,-3.324631453E-1,1.082757786E-1
4.534327780E-1,-1.033888608E-1,-3.226893246E-1,1.046105921E-1
4.555393930E-1,-1.119409725E-1,-3.251327872E-1,1.033888608E-1
4.576460070E-1,-1.180496216E-1,-3.434587121E-1,1.021671370E-1
4.597526740E-1,-1.339320987E-1,-3.422369957E-1,9.972367436E-2
4.618592890E-1,-1.571449637E-1,-3.165806830E-1,9.361502528E-2
4.639659030E-1,-1.828012913E-1,-2.994764447E-1,8.750637621E-2
4.660725180E-1,-2.060141414E-1,-2.909243405E-1,7.895427197E-2
4.681791840E-1,-2.280052751E-1,-2.945895493E-1,7.406735420E-2
4.702857990E-1,-2.561050653E-1,-2.909243405E-1,6.918043643E-2
4.723924140E-1,-2.842048407E-1,-2.725984156E-1,6.307178736E-2
4.744990280E-1,-3.147480786E-1,-2.567159235E-1,5.940660089E-2
4.766056950E-1,-3.379609287E-1,-2.432768941E-1,5.329795182E-2
4.787122570E-1,-3.636172712E-1,-2.371682525E-1,5.085449293E-2
4.808189240E-1,-3.856084049E-1,-2.298378795E-1,4.963276163E-2
4.829254870E-1,-4.075995386E-1,-2.225074917E-1,4.963276163E-2
4.850321530E-1,-4.271472096E-1,-2.139553875E-1,5.085449293E-2
4.871387680E-1,-4.430296719E-1,-2.029598206E-1,5.085449293E-2
4.892454340E-1,-4.589121640E-1,-1.931859851E-1,5.329795182E-2
4.913520490E-1,-4.735729098E-1,-1.858556122E-1,5.818486959E-2
4.934586640E-1,-4.845684767E-1,-1.797469556E-1,6.185005978E-2
4.955652780E-1,-4.918988645E-1,-1.699731201E-1,6.673697382E-2
4.976718930E-1,-4.980075061E-1,-1.601992846E-1,7.162389904E-2
4.997785070E-1,-5.028944016E-1,-1.565341055E-1,7.895427197E-2
5.018851220E-1,-5.053378940E-1,-1.479819864E-1,8.261945844E-2
5.039917890E-1,-5.004509687E-1,-1.406516135E-1,8.872810751E-2
5.060984030E-1,-4.955640435E-1,-1.357647032E-1,9.483675659E-2
5.082050180E-1,-4.894554019E-1,-1.296560466E-1,9.972367436E-2
5.103116320E-1,-4.772381186E-1,-1.259908676E-1,1.033888608E-1
5.124182990E-1,-4.637990892E-1,-1.235474050E-1,1.094975099E-1
5.145248620E-1,-4.466948807E-1,-1.174387559E-1,1.119409725E-1
5.166315280E-1,-4.259254634E-1,-1.186604798E-1,1.168278903E-1
5.187381430E-1,-4.027126133E-1,-1.223256737E-1,1.217148080E-1
5.208447570E-1,-3.746128380E-1,-1.247691289E-1,1.253799945E-1
5.229514240E-1,-3.465130329E-1,-1.259908676E-1,1.278234571E-1
5.250580390E-1,-3.159697950E-1,-1.272125840E-1,1.302669197E-1
5.271646530E-1,-2.805396616E-1,-1.272125840E-1,1.314886510E-1
5.292712680E-1,-2.475529462E-1,-1.320995092E-1,1.290451884E-1
5.313778820E-1,-2.121227980E-1,-1.369864196E-1,1.266017258E-1
5.334844970E-1,-1.779143661E-1,-1.455385387E-1,1.229365394E-1
5.355911640E-1,-1.449276656E-1,-1.504254490E-1,1.156061590E-1
5.376977780E-1,-1.119409725E-1,-1.589775532E-1,1.082757786E-1
5.398043930E-1,-8.017600328E-2,-1.687513888E-1,1.009454057E-1
5.419110070E-1,-5.207622424E-2,-1.748600453E-1,9.239330143E-2
5.440176220E-1,-2.275471389E-2,-1.809686869E-1,8.261945844E-2
5.461242370E-1,2.901607659E-3,-1.870773435E-1,7.162389904E-2
5.482309030E-1,2.489273995E-2,-1.968511790E-1,5.940660089E-2
5.503375180E-1,4.321868345E-2,-2.017380893E-1,4.596757516E-2
5.524441320E-1,5.665770918E-2,-2.078467458E-1,3.497200832E-2
5.545507470E-1,7.131846249E-2,-2.139553875E-1,2.275471389E-2
5.566574140E-1,7.742711157E-2,-2.188423127E-1,1.053741761E-2
5.587639760E-1,8.353576064E-2,-2.212857604E-1,7.635809598E-4
5.608706430E-1,8.597921580E-2,-2.273944169E-1,-1.023198478E-2
5.629772570E-1,8.842267841E-2,-2.249509543E-1,-2.122755162E-2
5.650838720E-1,8.720094711E-2,-2.261726856E-1,-3.100138716E-2
5.671904870E-1,7.864884287E-2,-2.249509543E-1,-3.833176568E-2
5.692971530E-1,7.254019380E-2,-2.261726856E-1,-4.688387364E-2
5.714037680E-1,6.398808211E-2,-2.249509543E-1,-5.421425030E-2
5.735103820E-1,5.299251899E-2,-2.237292230E-1,-6.276635826E-2
5.756169970E-1,3.955349326E-2,-2.261726856E-1,-6.887500733E-2
5.777236120E-1,2.489273995E-2,-2.310595959E-1,-7.498364896E-2
5.798302780E-1,9.010255337E-3,-2.347247899E-1,-8.353576064E-2
5.819368930E-1,-9.315688163E-3,-2.457203567E-1,-8.964440972E-2
5.840435070E-1,-3.008509055E-2,-2.579376400E-1,-9.697478265E-2
5.861501220E-1,-4.963276163E-2,-2.701549530E-1,-1.043051630E-1
5.882567370E-1,-7.162389904E-2,-2.835939825E-1,-1.116355360E-1
5.903633510E-1,-9.361502528E-2,-2.982547283E-1,-1.177441850E-1
5.924700180E-1,-1.143844277E-1,-3.141372204E-1,-1.250745654E-1
5.945766320E-1,-1.388190240E-1,-3.263545036E-1,-1.311832070E-1
5.966832470E-1,-1.595884264E-1,-3.385718167E-1,-1.360701323E-1
5.987898620E-1,-1.791360974E-1,-3.471239209E-1,-1.409570426E-1
6.008964760E-1,-1.999054998E-1,-3.568977416E-1,-1.446222365E-1
6.030031430E-1,-2.170097083E-1,-3.605629504E-1,-1.495091617E-1
6.051097570E-1,-2.341139317E-1,-3.691150546E-1,-1.507308781E-1
6.072163720E-1,-2.487746775E-1,-3.691150546E-1,-1.531743407E-1
6.093229870E-1,-2.634354234E-1,-3.678933084E-1,-1.519526094E-1
6.114296010E-1,-2.732092738E-1,-3.678933084E-1,-1.507308781E-1
6.135362160E-1,-2.829830945E-1,-3.691150546E-1,-1.470656991E-1
6.156428300E-1,-2.915352285E-1,-3.654498458E-1,-1.434005052E-1
6.177494970E-1,-2.952004075E-1,-3.617846668E-1,-1.397353113E-1
6.198561120E-1,-2.988655865E-1,-3.568977416E-1,-1.336266696E-1
6.219627260E-1,-3.000873327E-1,-3.483456373E-1,-1.275180280E-1
6.240693930E-1,-2.964221239E-1,-3.459021747E-1,-1.201876476E-1
6.261759550E-1,-2.903134823E-1,-3.397935331E-1,-1.104138121E-1
6.282826220E-1,-2.829830945E-1,-3.349066079E-1,-9.941824526E-2
6.303892370E-1,-2.744309902E-1,-3.202458620E-1,-8.842267841E-2
6.324958510E-1,-2.622137070E-1,-3.092502952E-1,-7.620538026E-2
6.346024660E-1,-2.487746775E-1,-3.006981909E-1,-6.520981342E-2
6.367090800E-1,-2.304487377E-1,-2.872591615E-1,-5.177079141E-2
6.388156950E-1,-2.109010667E-1,-2.799287736E-1,-3.588830680E-2
6.409223620E-1,-1.901316643E-1,-2.603811026E-1,-2.244928107E-2
6.430289760E-1,-1.669187993E-1,-2.481638193E-1,-9.010255337E-3
6.451355910E-1,-1.412624866E-1,-2.359465212E-1,5.650499370E-3
6.472422570E-1,-1.156061590E-1,-2.237292230E-1,1.908952370E-2
6.493488200E-1,-8.506292105E-2,-2.102901936E-1,3.252854943E-2
6.514554870E-1,-6.062832847E-2,-1.968511790E-1,4.596757516E-2
6.535621010E-1,-3.008509055E-2,-1.834121495E-1,5.818486959E-2
6.556687160E-1,-1.985310577E-3,-1.785252392E-1,6.795870513E-2
6.577753300E-1,2.244928107E-2,-1.663079411E-1,7.651081681E-2
6.598819450E-1,4.932733253E-2,-1.565341055E-1,8.384118974E-2
6.619886120E-1,7.254019380E-2,-1.479819864E-1,8.994983882E-2
6.640952260E-1,9.575305134E-2,-1.443168074E-1,9.483675659E-2
6.662018410E-1,1.201876476E-1,-1.382081509E-1,9.728021920E-2
6.683084550E-1,1.385135949E-1,-1.369864196E-1,9.972367436E-2
6.704150700E-1,1.543960720E-1,-1.308777779E-1,1.021671370E-1
6.725217370E-1,1.739437431E-1,-1.308777779E-1,1.033888608E-1
6.746283510E-1,1.910479665E-1,-1.320995092E-1,1.033888608E-1
6.767349660E-1,2.044869810E-1,-1.333212405E-1,1.009454057E-1
6.788415800E-1,2.179260105E-1,-1.357647032E-1,9.483675659E-2
6.809481950E-1,2.264781147E-1,-1.369864196E-1,9.117157012E-2
6.830548090E-1,2.338084877E-1,-1.345429718E-1,8.261945844E-2
6.851614760E-1,2.374736816E-1,-1.382081509E-1,7.284562290E-2
6.872680910E-1,2.399171442E-1,-1.345429718E-1,6.185005978E-2
6.893747050E-1,2.399171442E-1,-1.308777779E-1,5.085449293E-2
6.914813720E-1,2.338084877E-1,-1.284343153E-1,3.863719851E-2
6.935879340E-1,2.289215773E-1,-1.235474050E-1,2.397644334E-2
6.956946010E-1,2.215912044E-1,-1.174387559E-1,9.315688163E-3
6.978012160E-1,2.105956376E-1,-1.149952933E-1,-6.566796452E-3
6.999078300E-1,1.996000707E-1,-1.039997265E-1,-2.122755162E-2
7.020144450E-1,1.861610413E-1,-9.544762224E-2,-3.833176568E-2
7.041210590E-1,1.702785641E-1,-8.689551800E-2,-5.543597788E-2
7.062276740E-1,1.519526094E-1,-8.323032409E-2,-7.131846249E-2
7.083342890E-1,1.324049383E-1,-7.101303339E-2,-8.597921580E-2
7.104409550E-1,1.128572673E-1,-6.368265301E-2,-1.030834317E-1
7.125475700E-1,9.453132749E-2,-5.635227636E-2,-1.177441850E-1
7.146541840E-1,7.254019380E-2,-4.535670951E-2,-1.324049383E-1
7.167607990E-1,5.299251899E-2,-3.558287397E-2,-1.458439678E-1
7.188674660E-1,3.344484791E-2,-2.336557768E-2,-1.592829973E-1
7.209740800E-1,1.389717404E-2,-1.237001177E-2,-1.702785641E-1
7.230806950E-1,-8.093958721E-3,2.290742937E-3,-1.800523996E-1
7.251873090E-1,-2.641990222E-2,1.084284950E-2,-1.886045039E-1
7.272939760E-1,-4.596757516E-2,1.939495653E-2,-1.971566081E-1
7.294005910E-1,-6.307178736E-2,2.672533318E-2,-2.032652497E-1
7.315072050E-1,-7.895427197E-2,3.039052337E-2,-2.093739063E-1
7.336138200E-1,-9.239330143E-2,3.649916872E-2,-2.105956376E-1
7.357204340E-1,-1.033888608E-1,3.772090003E-2,-2.118173689E-1
7.378270490E-1,-1.119409725E-1,3.527744114E-2,-2.105956376E-1
7.399337160E-1,-1.168278903E-1,3.649916872E-2,-2.093739063E-1
7.420403300E-1,-1.192713454E-1,3.649916872E-2,-2.044869810E-1
7.441469450E-1,-1.180496216E-1,3.405570984E-2,-1.996000707E-1
7.462535590E-1,-1.143844277E-1,2.794706449E-2,-1.910479665E-1
7.483601740E-1,-1.058323234E-1,2.672533318E-2,-1.824958473E-1
7.504667890E-1,-9.728021920E-2,2.794706449E-2,-1.763872057E-1
7.525734030E-1,-8.139773458E-2,2.183841541E-2,-1.666133702E-1
7.546800700E-1,-7.040216774E-2,1.939495653E-2,-1.580612659E-1
7.567866840E-1,-5.696314201E-2,1.328630932E-2,-1.482874304E-1
7.588932990E-1,-3.985892609E-2,7.177661173E-3,-1.397353113E-1
7.609999140E-1,-2.153298259E-2,3.512472380E-3,-1.287397593E-1
7.631065800E-1,-3.207040019E-3,5.955931731E-3,-1.214093715E-1
7.652131950E-1,1.023198478E-2,-6.261364091E-3,-1.104138121E-1
7.673198090E-1,2.733619884E-2,-8.704823442E-3,-1.018617004E-1
7.694264240E-1,4.444041103E-2,-1.847865991E-2,-9.575305134E-2
7.715330390E-1,5.787943676E-2,-2.458730713E-2,-8.842267841E-2
7.736397050E-1,7.009673119E-2,-3.191768378E-2,-8.475748450E-2
7.757463200E-1,8.597921580E-2,-4.291325063E-2,-7.742711157E-2
7.778529340E-1,9.819651395E-2,-5.390881747E-2,-7.376192510E-2
7.799595490E-1,1.079703495E-1,-5.757400393E-2,-6.887500733E-2
7.820661640E-1,1.214093715E-1,-6.856957078E-2,-6.765327603E-2
7.841727780E-1,1.299614757E-1,-7.834340632E-2,-6.398808211E-2
7.862794450E-1,1.397353113E-1,-8.811724186E-2,-6.276635826E-2
7.883860590E-1,1.482874304E-1,-9.666935354E-2,-5.910116807E-2
7.904926740E-1,1.556178033E-1,-1.015562713E-1,-5.665770918E-2
7.925992890E-1,1.641699076E-1,-1.076649204E-1,-5.543597788E-2
7.947059030E-1,1.702785641E-1,-1.125518382E-1,-5.299251899E-2
7.968125180E-1,1.739437431E-1,-1.149952933E-1,-5.177079141E-2
7.989191840E-1,1.788306683E-1,-1.113301069E-1,-5.054906011E-2
8.010257990E-1,1.776089370E-1,-1.113301069E-1,-5.177079141E-2
8.031324140E-1,1.763872057E-1,-1.064431891E-1,-5.299251899E-2
8.052390280E-1,1.776089370E-1,-1.064431891E-1,-5.299251899E-2
8.073456430E-1,1.739437431E-1,-9.911280870E-2,-5.787943676E-2
8.094522570E-1,1.702785641E-1,-9.666935354E-2,-6.032289565E-2
8.115589240E-1,1.617264450E-1,-9.056070447E-2,-6.520981342E-2
8.136655390E-1,1.580612659E-1,-8.445205539E-2,-7.131846249E-2
8.157721530E-1,1.482874304E-1,-8.323032409E-2,-7.498364896E-2
8.178787680E-1,1.397353113E-1,-7.712167501E-2,-8.109229803E-2
8.199853820E-1,1.311832070E-1,-7.223475724E-2,-8.597921580E-2
8.220920490E-1,1.214093715E-1,-6.001746282E-2,-9.086613357E-2
8.241986640E-1,1.079703495E-1,-4.902189970E-2,-9.453132749E-2
8.263052780E-1,9.453132749E-2,-3.680460155E-2,-9.941824526E-2
8.284118930E-1,8.231402934E-2,-2.214384824E-2,-1.030834317E-1
8.305185590E-1,6.887500733E-2,-6.261364091E-3,-1.079703495E-1
8.326251220E-1,5.421425030E-2,1.069013379E-3,-1.104138121E-1
8.347317890E-1,4.077522457E-2,1.572976820E-2,-1.128572673E-1
8.368384030E-1,2.733619884E-2,2.916879393E-2,-1.128572673E-1
8.389450180E-1,1.267544460E-2,4.016435891E-2,-1.128572673E-1
8.410516320E-1,-7.635809598E-4,5.482511222E-2,-1.104138121E-1
8.431582470E-1,-1.298087649E-2,6.826414168E-2,-1.079703495E-1
8.452649140E-1,-2.397644334E-2,7.925970852E-2,-1.030834317E-1
8.473715280E-1,-3.008509055E-2,9.147699922E-2,-9.941824526E-2
8.494781430E-1,-3.985892609E-2,9.636391699E-2,-9.330959618E-2
8.515847570E-1,-4.352411628E-2,1.024725661E-1,-8.720094711E-2
8.536913720E-1,-4.474584386E-2,1.110246703E-1,-8.109229803E-2
8.557980390E-1,-4.718930274E-2,1.122464016E-1,-7.376192510E-2
8.579046530E-1,-4.841103405E-2,1.207985133E-1,-6.643154472E-2
8.600112680E-1,-4.230238497E-2,1.220202371E-1,-6.032289565E-2
8.621178820E-1,-3.985892609E-2,1.232419685E-1,-5.299251899E-2
8.642244970E-1,-3.130681813E-2,1.256854236E-1,-4.810560122E-2
8.663311640E-1,-2.031125315E-2,1.183550507E-1,-4.077522457E-2
8.684377780E-1,-6.872228812E-3,1.146898642E-1,-3.588830680E-2
8.705443930E-1,5.345067009E-3,1.098029464E-1,-2.855792828E-2
8.726510070E-1,2.000582218E-2,1.061377525E-1,-2.367101051E-2
8.747576220E-1,3.711003438E-2,9.880737960E-2,-1.878409274E-2
8.768642890E-1,5.543597788E-2,9.025526792E-2,-1.023198478E-2
8.789709030E-1,7.498364896E-2,8.048143238E-2,-5.345067009E-3
8.810775180E-1,9.330959618E-2,7.070759684E-2,7.635809598E-4
8.831841320E-1,1.189659163E-1,6.337722391E-2,8.093958721E-3
8.852907470E-1,1.385135949E-1,5.238165334E-2,1.420260593E-2
8.873974140E-1,1.605047137E-1,4.016435891E-2,1.908952370E-2
8.895040280E-1,1.788306683E-1,2.550360374E-2,2.397644334E-2
8.916105910E-1,1.959348768E-1,1.206457894E-2,3.008509055E-2
8.937172570E-1,2.130390853E-1,2.290742937E-3,3.375028074E-2
8.958238720E-1,2.289215773E-1,-7.483093534E-3,3.619373962E-2
8.979304870E-1,2.362519503E-1,-2.703076601E-2,3.985892609E-2
9.000371010E-1,2.484692484E-1,-3.680460155E-2,3.741546720E-2
9.021437160E-1,2.533561587E-1,-5.390881747E-2,3.863719851E-2
9.042503820E-1,2.557996213E-1,-6.612611562E-2,3.741546720E-2
9.063569970E-1,2.570213675E-1,-8.200860023E-2,3.252854943E-2
9.084636120E-1,2.557996213E-1,-9.666935354E-2,2.764163166E-2
9.105702260E-1,2.472475171E-1,-1.076649204E-1,2.275471389E-2
9.126768410E-1,2.386954129E-1,-1.186604798E-1,1.664606482E-2
9.147835070E-1,2.276998460E-1,-1.272125840E-1,8.093958721E-3
9.168901220E-1,2.154825479E-1,-1.345429718E-1,-4.581485991E-4
9.189967370E-1,2.020435184E-1,-1.394298822E-1,-5.345067009E-3
9.211033510E-1,1.873827726E-1,-1.406516135E-1,-1.023198478E-2
9.232099660E-1,1.751654744E-1,-1.394298822E-1,-1.389717404E-2
9.253166320E-1,1.617264450E-1,-1.345429718E-1,-1.756236330E-2
9.274232470E-1,1.507308781E-1,-1.308777779E-1,-2.122755162E-2
9.295298620E-1,1.360701323E-1,-1.272125840E-1,-2.244928107E-2
9.316364760E-1,1.238528341E-1,-1.186604798E-1,-2.611446939E-2
9.337430910E-1,1.140789986E-1,-1.137735620E-1,-2.733619884E-2
9.358497050E-1,9.941824526E-2,-1.088866442E-1,-3.100138716E-2
9.379563720E-1,9.208786488E-2,-9.911280870E-2,-3.711003438E-2
9.400629340E-1,7.987056673E-2,-9.544762224E-2,-3.955349326E-2
9.421696010E-1,7.009673119E-2,-9.056070447E-2,-4.810560122E-2
9.442762160E-1,6.154462695E-2,-8.689551800E-2,-5.054906011E-2
9.463828300E-1,5.054906011E-2,-8.811724186E-2,-5.665770918E-2
9.484894450E-1,4.688387364E-2,-7.956513762E-2,-6.154462695E-2
9.505961120E-1,4.199695215E-2,-8.078686893E-2,-6.520981342E-2
9.527027260E-1,3.833176568E-2,-7.345648855E-2,-6.887500733E-2
9.548093410E-1,3.222311661E-2,-7.467821985E-2,-7.376192510E-2
9.569160070E-1,2.977965772E-2,-7.345648855E-2,-7.620538026E-2
9.590226220E-1,3.100138716E-2,-7.467821985E-2,-7.987056673E-2
9.611292370E-1,3.100138716E-2,-7.345648855E-2,-7.987056673E-2
9.632358510E-1,3.222311661E-2,-7.101303339E-2,-8.231402934E-2
9.653424660E-1,3.466657549E-2,-7.834340632E-2,-7.987056673E-2
9.674490800E-1,3.833176568E-2,-8.078686893E-2,-7.864884287E-2
9.695557470E-1,4.444041103E-2,-8.445205539E-2,-7.742711157E-2
9.716623090E-1,5.054906011E-2,-9.056070447E-2,-7.498364896E-2
9.737689760E-1,5.787943676E-2,-9.422589093E-2,-7.009673119E-2
9.758755910E-1,7.009673119E-2,-1.027780026E-1,-6.765327603E-2
9.779822050E-1,7.864884287E-2,-1.088866442E-1,-6.154462695E-2
9.800888200E-1,9.086613357E-2,-1.162170246E-1,-5.787943676E-2
9.821954870E-1,1.006399691E-1,-1.198822111E-1,-5.421425030E-2
9.843020490E-1,1.128572673E-1,-1.272125840E-1,-5.054906011E-2
9.864087160E-1,1.238528341E-1,-1.333212405E-1,-4.810560122E-2
9.885153300E-1,1.324049383E-1,-1.406516135E-1,-4.566214234E-2
9.906219450E-1,1.409570426E-1,-1.455385387E-1,-4.444041103E-2
9.927285590E-1,1.458439678E-1,-1.479819864E-1,-4.321868345E-2
9.948351740E-1,1.531743407E-1,-1.540906429E-1,-4.321868345E-2
9.969418410E-1,1.519526094E-1,-1.565341055E-1,-4.077522457E-2
9.990484550E-1,1.543960720E-1,-1.589775532E-1,-4.077522457E-2
1.001155070E0,1.507308781E-1,-1.699731201E-1,-4.077522457E-2
1.003261684E0,1.470656991E-1,-1.748600453E-1,-4.199695215E-2
1.005368299E0,1.385135949E-1,-1.834121495E-1,-4.321868345E-2
1.007474966E0,1.262962967E-1,-1.968511790E-1,-4.444041103E-2
1.009581580E0,1.165224537E-1,-2.054032832E-1,-4.932733253E-2
1.011688195E0,1.018617004E-1,-2.176205814E-1,-5.543597788E-2
1.013794809E0,8.231402934E-2,-2.322813272E-1,-6.032289565E-2
1.015901424E0,6.887500733E-2,-2.408334464E-1,-7.009673119E-2
1.018008091E0,5.177079141E-2,-2.506072819E-1,-8.109229803E-2
1.020114705E0,3.222311661E-2,-2.603811026E-1,-9.208786488E-2
1.022221320E0,1.267544460E-2,-2.677114904E-1,-1.018617004E-1
1.024327934E0,-6.872228812E-3,-2.762635946E-1,-1.165224537E-1
1.026434549E0,-2.764163166E-2,-2.811505198E-1,-1.287397593E-1
1.028541164E0,-4.718930274E-2,-2.848156989E-1,-1.409570426E-1
1.030647830E0,-6.795870513E-2,-2.835939825E-1,-1.543960720E-1
1.032754445E0,-9.117157012E-2,-2.835939825E-1,-1.653916389E-1
1.034861059E0,-1.131627038E-1,-2.774853408E-1,-1.776089370E-1
1.036967674E0,-1.388190240E-1,-2.567159235E-1,-1.873827726E-1
1.039074289E0,-1.718057245E-1,-2.237292230E-1,-1.922696829E-1
1.041180955E0,-2.060141414E-1,-1.919642538E-1,-1.959348768E-1
1.043287518E0,-2.377791107E-1,-1.663079411E-1,-1.983783394E-1
1.045394184E0,-2.683223486E-1,-1.418733448E-1,-1.971566081E-1
1.047500799E0,-2.964221239E-1,-1.259908676E-1,-1.983783394E-1
1.049607414E0,-3.220784664E-1,-1.137735620E-1,-1.934914142E-1
1.051714028E0,-3.416261375E-1,-1.088866442E-1,-1.898262352E-1
1.053820695E0,-3.587303460E-1,-1.088866442E-1,-1.849393100E-1
1.055927309E0,-3.697259128E-1,-1.076649204E-1,-1.788306683E-1
1.058033924E0,-3.758345544E-1,-1.076649204E-1,-1.739437431E-1
1.060140539E0,-3.831649423E-1,-1.052214578E-1,-1.678351015E-1
1.062247153E0,-3.880518377E-1,-1.027780026E-1,-1.617264450E-1
1.064353768E0,-3.880518377E-1,-9.789107740E-2,-1.519526094E-1
1.066460382E0,-3.880518377E-1,-8.689551800E-2,-1.446222365E-1
1.068567049E0,-3.843866587E-1,-7.345648855E-2,-1.360701323E-1
1.070673664E0,-3.807214797E-1,-5.024362728E-2,-1.250745654E-1
1.072780278E0,-3.770562708E-1,-3.436114267E-2,-1.140789986E-1
1.074886893E0,-3.721693754E-1,-1.359174121E-2,-1.030834317E-1
1.076993507E0,-3.721693754E-1,4.734201822E-3,-9.086613357E-2
1.079100174E0,-3.733910918E-1,2.428187430E-2,-7.498364896E-2
1.081206789E0,-3.770562708E-1,4.138609022E-2,-6.032289565E-2
1.083313403E0,-3.770562708E-1,3.039052337E-2,-3.833176568E-2
1.085420018E0,-3.733910918E-1,-3.817904973E-3,-1.389717404E-2
1.087526632E0,-3.843866587E-1,7.177661173E-3,1.298087649E-2
1.089633299E0,-3.978256881E-1,7.177661173E-3,3.863719851E-2
1.091739914E0,-4.137081802E-1,-8.704823442E-3,6.307178736E-2
1.093846528E0,-4.344775677E-1,-2.214384824E-2,8.506292105E-2
1.095953143E0,-4.564687014E-1,-4.046979174E-2,1.070540547E-1
1.098059757E0,-4.833467603E-1,-6.612611562E-2,1.266017258E-1
1.100166424E0,-5.114465356E-1,-9.666935354E-2,1.449276656E-1
1.102273039E0,-5.395463109E-1,-1.284343153E-1,1.620318890E-1
1.104379653E0,-5.627591610E-1,-1.699731201E-1,1.779143661E-1
1.106486268E0,-5.871937871E-1,-2.163988501E-1,1.925751269E-1
1.108592882E0,-6.055197120E-1,-2.689332068E-1,2.084576041E-1
1.110699497E0,-6.214022040E-1,-3.239110410E-1,2.231183648E-1
1.112806164E0,-6.323977709E-1,-3.678933084E-1,2.402225733E-1
1.114912778E0,-6.385064125E-1,-4.057669342E-1,2.536616027E-1
1.117019393E0,-6.385064125E-1,-4.448622763E-1,2.695440948E-1
1.119126007E0,-6.385064125E-1,-4.680751264E-1,2.829830945E-1
1.121232674E0,-6.287325621E-1,-4.949531853E-1,2.964221239E-1
1.123339237E0,-6.189587116E-1,-5.206094980E-1,3.074176908E-1
1.125445851E0,-6.091849208E-1,-5.450441241E-1,3.171915412E-1
1.127552518E0,-5.896372199E-1,-5.658134818E-1,3.257436454E-1
1.129659132E0,-5.700895786E-1,-5.926915407E-1,3.330740333E-1
1.131765747E0,-5.480984449E-1,-6.097957492E-1,3.391826749E-1
1.133872362E0,-5.261073112E-1,-6.256782413E-1,3.428478539E-1
1.135979028E0,-5.004509687E-1,-6.427824497E-1,3.452913165E-1
1.138085643E0,-4.686860144E-1,-6.562215090E-1,3.428478539E-1
1.140192257E0,-4.356993139E-1,-6.757691503E-1,3.416261375E-1
1.142298872E0,-3.990474045E-1,-6.928733587E-1,3.367392123E-1
1.144405487E0,-3.648389876E-1,-7.173079848E-1,3.306305707E-1
1.146512101E0,-3.294088244E-1,-7.356339097E-1,3.220784664E-1
1.148618716E0,-2.939786613E-1,-7.551816106E-1,3.110828996E-1
1.150725382E0,-2.561050653E-1,-7.747292519E-1,2.952004075E-1
1.152831997E0,-2.194531709E-1,-7.893900275E-1,2.793179154E-1
1.154938612E0,-1.840230078E-1,-8.028290272E-1,2.597702444E-1
1.157045226E0,-1.498145908E-1,-8.113811612E-1,2.390008420E-1
1.159151841E0,-1.229365394E-1,-8.113811612E-1,2.194531709E-1
1.161258455E0,-9.972367436E-2,-8.089376688E-1,1.974620372E-1
1.163365122E0,-7.406735420E-2,-8.003855944E-1,1.754709035E-1
1.165471737E0,-5.696314201E-2,-7.796161771E-1,1.559232324E-1
1.167578351E0,-4.352411628E-2,-7.551816106E-1,1.375972927E-1
1.169684966E0,-3.619373962E-2,-7.160862088E-1,1.204930767E-1
1.171791580E0,-3.375028074E-2,-6.684387922E-1,1.058323234E-1
1.173898247E0,-3.375028074E-2,-6.244565248E-1,9.239330143E-2
1.176004862E0,-3.619373962E-2,-5.816959739E-1,8.017600328E-2
1.178111476E0,-3.741546720E-2,-5.401571989E-1,7.162389904E-2
1.180218091E0,-3.985892609E-2,-5.047270060E-1,6.429351866E-2
1.182324705E0,-4.718930274E-2,-4.680751264E-1,6.185005978E-2
1.184431372E0,-5.696314201E-2,-4.363101721E-1,5.940660089E-2
1.186537987E0,-6.307178736E-2,-3.996582925E-1,6.307178736E-2
1.188644601E0,-6.918043643E-2,-3.740019500E-1,7.040216774E-2
1.190751216E0,-7.284562290E-2,-3.520108163E-1,8.017600328E-2
1.192857830E0,-7.773254067E-2,-3.312414289E-1,9.728021920E-2
1.194964497E0,-7.895427197E-2,-3.129154742E-1,1.168278903E-1
1.197071112E0,-8.017600328E-2,-2.958112657E-1,1.424842030E-1
1.199177726E0,-7.773254067E-2,-2.750418782E-1,1.693622619E-1
1.201284341E0,-7.284562290E-2,-2.591593862E-1,1.986837685E-1
1.203390955E0,-6.795870513E-2,-2.371682525E-1,2.292270064E-1
1.205497570E0,-5.818486959E-2,-2.200640440E-1,2.597702444E-1
1.207604184E0,-5.329795182E-2,-2.054032832E-1,2.915352285E-1
1.209710799E0,-4.596757516E-2,-1.968511790E-1,3.184132576E-1
1.211817466E0,-4.108065739E-2,-1.870773435E-1,3.428478539E-1
1.213924080E0,-3.741546720E-2,-1.809686869E-1,3.636172712E-1
1.216030695E0,-3.863719851E-2,-1.736383140E-1,3.819431961E-1
1.218137309E0,-4.108065739E-2,-1.614210159E-1,3.953822255E-1
1.220243924E0,-4.474584386E-2,-1.479819864E-1,4.039343297E-1
1.222350539E0,-4.718930274E-2,-1.406516135E-1,4.075995386E-1
1.224457205E0,-5.207622424E-2,-1.296560466E-1,4.063777924E-1
1.226563820E0,-6.185005978E-2,-1.174387559E-1,4.002691507E-1
1.228670434E0,-6.673697382E-2,-1.027780026E-1,3.892735839E-1
1.230777049E0,-7.406735420E-2,-8.933897316E-2,3.758345544E-1
1.232883664E0,-8.261945844E-2,-7.956513762E-2,3.587303460E-1
1.234990330E0,-8.384118974E-2,-6.368265301E-2,3.404043913E-1
1.237096945E0,-8.506292105E-2,-5.146535859E-2,3.184132576E-1
1.239203559E0,-8.261945844E-2,-3.436114267E-2,2.939786613E-1
1.241310174E0,-8.139773458E-2,-2.947422490E-2,2.683223486E-1
1.243416841E0,-7.162389904E-2,-2.458730713E-2,2.414443046E-1
1.245523455E0,-5.818486959E-2,-1.847865991E-2,2.133445293E-1
1.247630070E0,-4.474584386E-2,-1.114828233E-2,1.864664704E-1
1.249736684E0,-2.031125315E-2,-8.704823442E-3,1.559232324E-1
1.251843299E0,6.566796452E-3,-1.374445739E-3,1.266017258E-1
1.253949966E0,2.977965772E-2,1.328630932E-2,9.850194305E-2
1.256056580E0,6.032289565E-2,2.916879393E-2,6.795870513E-2
1.258163195E0,9.208786488E-2,4.505127668E-2,3.863719851E-2
1.260269809E0,1.226311028E-1,5.360338464E-2,1.053741761E-2
1.262376424E0,1.495091617E-1,7.070759684E-2,-1.634063199E-2
1.264483039E0,1.763872057E-1,9.514218569E-2,-4.566214234E-2
1.266589705E0,2.105956376E-1,1.317940801E-1,-7.620538026E-2
1.268696320E0,2.448040545E-1,1.672242284E-1,-1.067486182E-1
1.270802934E0,2.790125012E-1,2.014326602E-1,-1.348484010E-1
1.272909549E0,3.119991720E-1,2.393062711E-1,-1.592829973E-1
1.275016164E0,3.437641561E-1,2.735147178E-1,-1.824958473E-1
1.277122778E0,3.681987524E-1,3.040579557E-1,-1.996000707E-1
1.279229393E0,3.865246773E-1,3.321577311E-1,-2.154825479E-1
1.281336059E0,3.975202441E-1,3.602575064E-1,-2.264781147E-1
1.283442674E0,3.950767815E-1,3.785834610E-1,-2.350302190E-1
1.285549289E0,3.853029609E-1,4.005745649E-1,-2.411388755E-1
1.287655903E0,3.633118272E-1,4.164570570E-1,-2.448040545E-1
1.289762518E0,3.315468729E-1,4.225656986E-1,-2.472475171E-1
1.291869184E0,2.875646055E-1,4.225656986E-1,-2.496909797E-1
1.293975799E0,2.362519503E-1,4.189005196E-1,-2.484692484E-1
1.296082414E0,1.739437431E-1,4.054614902E-1,-2.496909797E-1
1.298189028E0,1.030834317E-1,3.785834610E-1,-2.496909797E-1
1.300295643E0,3.100138716E-2,3.480401933E-1,-2.496909797E-1
1.302402309E0,-5.085449293E-2,3.028362095E-1,-2.509126961E-1
1.304508924E0,-1.412624866E-1,2.588539422E-1,-2.521344423E-1
1.306615539E0,-2.353356630E-1,2.075413018E-1,-2.545779049E-1
1.308722153E0,-3.355174661E-1,1.550069451E-1,-2.557996213E-1
1.310828768E0,-4.418079555E-1,1.012508348E-1,-2.619082630E-1
1.312935382E0,-5.468766689E-1,4.749473557E-2,-2.655734718E-1
1.315042049E0,-6.470585465E-1,-2.596175298E-3,-2.729038298E-1
1.317148664E0,-7.447968721E-1,-6.001746282E-2,-2.826776803E-1
1.319255278E0,-8.364266157E-1,-1.149952933E-1,-2.900080681E-1
1.321361893E0,-9.158390164E-1,-1.675296724E-1,-3.022253513E-1
1.323468507E0,-9.879210591E-1,-2.188423127E-1,-3.119991720E-1
1.325575122E0,-1.045342326E0,-2.689332068E-1,-3.217730224E-1
1.327681737E0,-1.094211578E0,-3.092502952E-1,-3.291034102E-1
1.329788403E0,-1.125976562E0,-3.446804583E-1,-3.352120519E-1
1.331894966E0,-1.144302487E0,-3.740019500E-1,-3.376555145E-1
1.334001632E0,-1.147967696E0,-3.984365463E-1,-3.388772309E-1
1.336108247E0,-1.138193846E0,-4.216494262E-1,-3.364337683E-1
1.338214914E0,-1.112537503E0,-4.460839927E-1,-3.352120519E-1
1.340321528E0,-1.075885534E0,-4.583013058E-1,-3.339903057E-1
1.342428143E0,-1.024572968E0,-4.680751264E-1,-3.291034102E-1
1.344534757E0,-9.659299254E-1,-4.729620516E-1,-3.229947388E-1
1.346641372E0,-8.962913752E-1,-4.717403352E-1,-3.156643808E-1
1.348747987E0,-8.181006312E-1,-4.656316638E-1,-3.095557392E-1
1.350854653E0,-7.313578725E-1,-4.558578432E-1,-3.022253513E-1
1.352961268E0,-6.446150541E-1,-4.424188137E-1,-2.924515009E-1
1.355067882E0,-5.542070866E-1,-4.192059636E-1,-2.802342176E-1
1.357174497E0,-4.613556266E-1,-3.972148299E-1,-2.667951882E-1
1.359281112E0,-3.648389876E-1,-3.691150546E-1,-2.545779049E-1
1.361387726E0,-2.671006322E-1,-3.446804583E-1,-2.435823381E-1
1.363494393E0,-1.754709035E-1,-3.214675784E-1,-2.350302190E-1
1.365601007E0,-8.506292105E-2,-2.921460867E-1,-2.325867712E-1
1.367707622E0,-3.207040019E-3,-2.591593862E-1,-2.338084877E-1
1.369814237E0,7.498364896E-2,-2.286161482E-1,-2.386954129E-1
1.371920851E0,1.446222365E-1,-2.005163580E-1,-2.448040545E-1
1.374027466E0,2.069304436E-1,-1.699731201E-1,-2.533561587E-1
1.376134132E0,2.594648004E-1,-1.418733448E-1,-2.643517256E-1
1.378240747E0,3.022253513E-1,-1.186604798E-1,-2.765690386E-1
1.380347362E0,3.352120519E-1,-9.422589093E-2,-2.863428593E-1
1.382453976E0,3.547597229E-1,-7.712167501E-2,-2.948949635E-1
1.384560591E0,3.681987524E-1,-5.879573524E-2,-3.010036349E-1
1.386667205E0,3.730856776E-1,-4.291325063E-2,-3.022253513E-1
1.388773820E0,3.681987524E-1,-3.924806044E-2,-3.010036349E-1
1.390880434E0,3.535379767E-1,-3.191768378E-2,-2.936732471E-1
1.392987101E0,3.352120519E-1,-3.069595434E-2,-2.851211429E-1
1.395093716E0,3.083339930E-1,-2.825249545E-2,-2.729038298E-1
1.397200330E0,2.790125012E-1,-3.558287397E-2,-2.582430840E-1
1.399306945E0,2.460257858E-1,-4.413498193E-2,-2.448040545E-1
1.401413612E0,2.118173689E-1,-5.635227636E-2,-2.301433086E-1
1.403520226E0,1.763872057E-1,-6.734783947E-2,-2.154825479E-1
1.405626841E0,1.421787739E-1,-8.200860023E-2,-2.008218020E-1
1.407733455E0,1.091920808E-1,-1.003345400E-1,-1.886045039E-1
1.409840070E0,8.231402934E-2,-1.162170246E-1,-1.763872057E-1
1.411946737E0,5.665770918E-2,-1.284343153E-1,-1.678351015E-1
1.414053299E0,3.711003438E-2,-1.455385387E-1,-1.592829973E-1
1.416159966E0,2.367101051E-2,-1.589775532E-1,-1.556178033E-1
1.418266580E0,1.511890348E-2,-1.724165827E-1,-1.507308781E-1
1.420373195E0,1.145371422E-2,-1.846338809E-1,-1.470656991E-1
1.422479862E0,5.345067009E-3,-1.956294477E-1,-1.434005052E-1
1.424586424E0,7.788525894E-3,-2.102901936E-1,-1.409570426E-1
1.426693091E0,1.023198478E-2,-2.237292230E-1,-1.348484010E-1
1.428799705E0,2.122755162E-2,-2.579376400E-1,-1.250745654E-1
1.430906320E0,2.733619884E-2,-2.713766694E-1,-1.091920808E-1
1.433012934E0,2.122755162E-2,-2.420551628E-1,-9.086613357E-2
1.435119549E0,1.878409274E-2,-2.298378795E-1,-7.620538026E-2
1.437226216E0,1.634063199E-2,-2.371682525E-1,-6.032289565E-2
1.439332830E0,1.023198478E-2,-2.396117151E-1,-4.688387364E-2
1.441439445E0,7.788525894E-3,-2.420551628E-1,-3.588830680E-2
1.443546059E0,1.679878100E-3,-2.506072819E-1,-2.733619884E-2
1.445652674E0,-9.315688163E-3,-2.603811026E-1,-2.000582218E-2
1.447759289E0,-1.542433538E-2,-2.652680278E-1,-1.511890348E-2
1.449865903E0,-2.519817278E-2,-2.750418782E-1,-1.267544460E-2
1.451972518E0,-4.474584386E-2,-2.848156989E-1,-9.010255337E-3
1.454079184E0,-7.040216774E-2,-3.043633699E-1,-4.581485991E-4
1.456185799E0,-1.021671370E-1,-3.226893246E-1,6.872228812E-3
1.458292414E0,-1.339320987E-1,-3.263545036E-1,1.053741761E-2
1.460399028E0,-1.693622619E-1,-3.239110410E-1,1.053741761E-2
1.462505643E0,-1.999054998E-1,-3.178023994E-1,6.872228812E-3
1.464612309E0,-2.341139317E-1,-3.055851161E-1,1.985310577E-3
1.466718924E0,-2.658788860E-1,-2.958112657E-1,-2.901607659E-3
1.468825539E0,-2.939786613E-1,-2.994764447E-1,-6.566796452E-3
1.470932153E0,-3.233001828E-1,-2.848156989E-1,-1.145371422E-2
1.473038768E0,-3.562868834E-1,-2.530507445E-1,-2.000582218E-2
1.475145434E0,-3.917170465E-1,-2.273944169E-1,-3.344484791E-2
1.477252049E0,-4.247037470E-1,-2.078467458E-1,-4.810560122E-2
1.479358664E0,-4.540252388E-1,-1.907425225E-1,-6.276635826E-2
1.481465278E0,-4.870119393E-1,-1.724165827E-1,-7.864884287E-2
1.483571893E0,-5.163334608E-1,-1.553123742E-1,-9.208786488E-2
1.485678507E0,-5.432115197E-1,-1.406516135E-1,-1.067486182E-1
1.487785174E0,-5.676460862E-1,-1.284343153E-1,-1.177441850E-1
1.489891737E0,-5.945241451E-1,-1.259908676E-1,-1.262962967E-1
1.491998403E0,-6.189587116E-1,-1.174387559E-1,-1.336266696E-1
1.494105018E0,-6.421716213E-1,-1.088866442E-1,-1.372918636E-1
1.496211632E0,-6.629409790E-1,-1.027780026E-1,-1.385135949E-1
1.498318247E0,-6.800451875E-1,-9.300415963E-2,-1.385135949E-1
1.500424914E0,-6.983711720E-1,-7.956513762E-2,-1.397353113E-1
1.502531528E0,-7.142536640E-1,-6.368265301E-2,-1.409570426E-1
1.504638143E0,-7.252492309E-1,-5.024362728E-2,-1.385135949E-1
1.506744757E0,-7.374665141E-1,-4.413498193E-2,-1.348484010E-1
1.508851372E0,-7.447968721E-1,-2.947422490E-2,-1.275180280E-1
1.510957987E0,-7.557924390E-1,-1.970038936E-2,-1.165224537E-1
1.513064601E0,-7.655662894E-1,-1.481347065E-2,-1.006399691E-1
1.515171268E0,-7.716749310E-1,-8.704823442E-3,-8.231402934E-2
1.517277882E0,-7.790052891E-1,-8.704823442E-3,-5.787943676E-2
1.519384497E0,-7.887791395E-1,-8.704823442E-3,-3.100138716E-2
1.521491112E0,-7.948877811E-1,-9.926552884E-3,-2.901607659E-3
1.523597726E0,-8.009964228E-1,-9.926552884E-3,2.764163166E-2
1.525704393E0,-8.058833480E-1,-8.704823442E-3,5.940660089E-2
1.527811007E0,-8.132137656E-1,-5.039634649E-3,8.994983882E-2
1.529917622E0,-8.193224072E-1,-2.596175298E-3,1.217148080E-1
1.532024237E0,-8.242093325E-1,1.069013379E-3,1.547015011E-1
1.534130851E0,-8.278744817E-1,1.084284950E-2,1.852447391E-1
1.536237466E0,-8.327614069E-1,1.817322709E-2,2.170097083E-1
1.538344132E0,-8.376483321E-1,2.672533318E-2,2.475529462E-1
1.540450747E0,-8.413135409E-1,4.260781780E-2,2.780961990E-1
1.542557362E0,-8.449786901E-1,5.726857483E-2,3.074176908E-1
1.544663976E0,-8.486438990E-1,7.315105945E-2,3.355174661E-1
1.546770643E0,-8.523091078E-1,8.659008145E-2,3.623955250E-1
1.548877257E0,-8.535308242E-1,9.880737960E-2,3.868301213E-1
1.550983820E0,-8.510873318E-1,1.110246703E-1,4.088212550E-1
1.553090487E0,-8.523091078E-1,1.171333194E-1,4.295906425E-1
1.555197101E0,-8.510873318E-1,1.220202371E-1,4.466948807E-1
1.557303716E0,-8.449786901E-1,1.244636998E-1,4.613556266E-1
1.559410330E0,-8.425352573E-1,1.220202371E-1,4.711294472E-1
1.561516997E0,-8.352048993E-1,1.171333194E-1,4.772381186E-1
1.563623559E0,-8.290961981E-1,1.110246703E-1,4.809032977E-1
1.565730226E0,-8.205441236E-1,1.024725661E-1,4.809032977E-1
1.567836841E0,-8.156571984E-1,8.781181276E-2,4.772381186E-1
1.569943455E0,-8.071050644E-1,7.315105945E-2,4.699077308E-1
1.572050070E0,-7.961094975E-1,5.238165334E-2,4.589121640E-1
1.574156684E0,-7.863357067E-1,2.794706449E-2,4.418079555E-1
1.576263351E0,-7.765618563E-1,3.512472380E-3,4.259254634E-1
1.578369966E0,-7.692314982E-1,-1.970038936E-2,4.075995386E-1
1.580476580E0,-7.582359314E-1,-5.024362728E-2,3.880518377E-1
1.582583195E0,-7.484620810E-1,-8.078686893E-2,3.660607338E-1
1.584689809E0,-7.386882305E-1,-1.137735620E-1,3.440696001E-1
1.586796424E0,-7.313578725E-1,-1.418733448E-1,3.233001828E-1
1.588903091E0,-7.191405892E-1,-1.699731201E-1,3.025307953E-1
1.591009705E0,-7.142536640E-1,-1.944077164E-1,2.829830945E-1
1.593116320E0,-7.020363212E-1,-2.188423127E-1,2.646571696E-1
1.595222934E0,-6.898190379E-1,-2.432768941E-1,2.512181401E-1
1.597329601E0,-6.800451875E-1,-2.603811026E-1,2.390008420E-1
1.599436216E0,-6.666061878E-1,-2.799287736E-1,2.316704690E-1
1.601542830E0,-6.519454122E-1,-2.994764447E-1,2.267835438E-1
1.603649445E0,-6.348412037E-1,-3.153589368E-1,2.267835438E-1
1.605756059E0,-6.152935624E-1,-3.324631453E-1,2.292270064E-1
1.607862674E0,-5.945241451E-1,-3.459021747E-1,2.365573794E-1
1.609969289E0,-5.700895786E-1,-3.581194878E-1,2.463312149E-1
1.612075955E0,-5.468766689E-1,-3.617846668E-1,2.585485280E-1
1.614182570E0,-5.175551772E-1,-3.630063832E-1,2.732092738E-1
1.616289184E0,-4.870119393E-1,-3.581194878E-1,2.890917659E-1
1.618395799E0,-4.540252388E-1,-3.434587121E-1,3.061959743E-1
1.620502414E0,-4.173733592E-1,-3.239110410E-1,3.257436454E-1
1.622609080E0,-3.807214797E-1,-3.006981909E-1,3.440696001E-1
1.624715695E0,-3.367392123E-1,-2.603811026E-1,3.648389876E-1
1.626822309E0,-2.927569449E-1,-2.237292230E-1,3.831649423E-1
1.628928924E0,-2.438877672E-1,-1.797469556E-1,4.002691507E-1
1.631035539E0,-1.937968582E-1,-1.345429718E-1,4.185950756E-1
1.633142153E0,-1.437059343E-1,-7.712167501E-2,4.332558513E-1
1.635248820E0,-9.239330143E-2,-1.847865991E-2,4.479165971E-1
1.637355434E0,-3.741546720E-2,4.505127668E-2,4.625773430E-1
1.639462049E0,1.634063199E-2,1.171333194E-1,4.747946560E-1
1.641568664E0,6.887500733E-2,1.916588247E-1,4.845684767E-1
1.643675278E0,1.238528341E-1,2.686277926E-1,4.955640435E-1
1.645781893E0,1.776089370E-1,3.419315517E-1,5.041161776E-1
1.647888559E0,2.350302190E-1,4.176788032E-1,5.090031028E-1
1.649995122E0,2.887863219E-1,4.873173833E-1,5.151117444E-1
1.652101789E0,3.449858725E-1,5.569559336E-1,5.187768936E-1
1.654208403E0,4.024071693E-1,6.192641854E-1,5.199986696E-1
1.656315018E0,4.586067200E-1,6.803506613E-1,5.187768936E-1
1.658421684E0,5.160280466E-1,7.353284955E-1,5.126682520E-1
1.660528299E0,5.734493136E-1,7.866411209E-1,5.041161776E-1
1.662634914E0,6.308705807E-1,8.403972387E-1,4.918988645E-1
1.664741528E0,6.858484149E-1,8.794925809E-1,4.796815813E-1
1.666848143E0,7.408262491E-1,9.259182811E-1,4.637990892E-1
1.668954757E0,7.982475758E-1,9.650136232E-1,4.466948807E-1
1.671061372E0,8.544471264E-1,1.002887249E0,4.295906425E-1
1.673168039E0,9.094249606E-1,1.041982651E0,4.137081802E-1
1.675274653E0,9.656245112E-1,1.081077933E0,3.953822255E-1
1.677381268E0,1.023045778E0,1.122616768E0,3.794997334E-1
1.679487882E0,1.079245329E0,1.160490394E0,3.623955250E-1
1.681594497E0,1.135444880E0,1.199585676E0,3.465130329E-1
1.683701112E0,1.195309639E0,1.231350660E0,3.306305707E-1
1.685807726E0,1.252730966E0,1.258228779E0,3.135263622E-1
1.687914393E0,1.310152292E0,1.275332928E0,2.927569449E-1
1.690021007E0,1.368795276E0,1.283885002E0,2.707658112E-1
1.692127622E0,1.428660035E0,1.281441569E0,2.463312149E-1
1.694234237E0,1.489746451E0,1.272889495E0,2.231183648E-1
1.696340851E0,1.549611211E0,1.250898361E0,1.974620372E-1
1.698447466E0,1.610697746E0,1.222798586E0,1.718057245E-1
1.700554132E0,1.665675521E0,1.186146736E0,1.437059343E-1
1.702660747E0,1.720653415E0,1.142164469E0,1.143844277E-1
1.704767362E0,1.778074622E0,1.093295217E0,8.139773458E-2
1.706873976E0,1.825722098E0,1.030987024E0,4.963276163E-2
1.708980591E0,1.869704366E0,9.613484740E-1,1.420260593E-2
1.711087257E0,1.902691126E0,8.856012225E-1,-2.000582218E-2
1.713193872E0,1.933234334E0,7.976366878E-1,-5.543597788E-2
1.715300487E0,1.952782035E0,7.084504366E-1,-8.842267841E-2
1.717407101E0,1.964999318E0,6.119337678E-1,-1.238528341E-1
1.719513716E0,1.964999318E0,5.154171586E-1,-1.543960720E-1
1.721620330E0,1.958890676E0,4.274526238E-1,-1.824958473E-1
1.723726945E0,1.941786408E0,3.211621642E-1,-2.057087123E-1
1.725833612E0,1.914908409E0,2.173151523E-1,-2.252563834E-1
1.727940226E0,1.881921649E0,1.110246703E-1,-2.435823381E-1
1.730046841E0,1.842826366E0,3.512472380E-3,-2.582430840E-1
1.732153455E0,1.796400547E0,-1.003345400E-1,-2.704603672E-1
1.734260070E0,1.745087981E0,-1.907425225E-1,-2.814559340E-1
1.736366737E0,1.687666655E0,-2.774853408E-1,-2.936732471E-1
1.738473351E0,1.620471597E0,-3.630063832E-1,-3.034470677E-1
1.740579966E0,1.549611211E0,-4.265363216E-1,-3.144426346E-1
1.742686580E0,1.473863959E0,-4.790706933E-1,-3.242164850E-1
1.744793195E0,1.390786409E0,-5.108356476E-1,-3.352120519E-1
1.746899809E0,1.302821875E0,-5.279398561E-1,-3.474293351E-1
1.749006424E0,1.213635564E0,-5.328267813E-1,-3.572031856E-1
1.751113091E0,1.119562387E0,-5.206094980E-1,-3.694204688E-1
1.753219705E0,1.026710987E0,-4.998401105E-1,-3.828594983E-1
1.755326320E0,9.363030195E-1,-4.766272306E-1,-3.999637067E-1
1.757432934E0,8.458949924E-1,-4.387536347E-1,-4.146244824E-1
1.759539601E0,7.554870248E-1,-3.959930837E-1,-4.317286909E-1
1.761646216E0,6.699659228E-1,-3.507890999E-1,-4.500546157E-1
1.763752830E0,5.868883133E-1,-2.945895493E-1,-4.720457494E-1
1.765859445E0,5.001455545E-1,-2.249509543E-1,-4.903717041E-1
1.767966059E0,4.243983030E-1,-1.345429718E-1,-5.025889874E-1
1.770072674E0,3.608683646E-1,-1.481347065E-2,-5.062541962E-1
1.772179289E0,3.046688139E-1,1.281288862E-1,-5.001455545E-1
1.774285955E0,2.374736816E-1,2.796233594E-1,-4.915934205E-1
1.776392570E0,1.519526094E-1,4.176788032E-1,-4.830413163E-1
1.778499184E0,4.321868345E-2,5.422952175E-1,-4.744892120E-1
1.780605799E0,-7.284562290E-2,6.436987519E-1,-4.683805704E-1
1.782712414E0,-1.937968582E-1,7.145590782E-1,-4.561632872E-1
1.784819028E0,-3.074176908E-1,7.512109876E-1,-4.439459741E-1
1.786925695E0,-4.088212550E-1,7.499892116E-1,-4.341721535E-1
1.789032309E0,-4.918988645E-1,7.182242870E-1,-4.317286909E-1
1.791138924E0,-5.603157282E-1,6.803506613E-1,-4.317286909E-1
1.793245539E0,-6.238456368E-1,6.339249015E-1,-4.329504073E-1
1.795352153E0,-6.739365458E-1,5.923861265E-1,-4.317286909E-1
1.797458820E0,-7.154753804E-1,5.581777096E-1,-4.268417656E-1
1.799565434E0,-7.472403646E-1,5.190823674E-1,-4.158461988E-1
1.801672049E0,-7.655662894E-1,4.836521745E-1,-3.999637067E-1
1.803778664E0,-7.667880058E-1,4.494437575E-1,-3.743073940E-1
1.805885278E0,-7.594576478E-1,4.176788032E-1,-3.462076187E-1
1.807991893E0,-7.386882305E-1,3.859138191E-1,-3.156643808E-1
1.810098559E0,-7.105884552E-1,3.517054021E-1,-2.802342176E-1
1.812205174E0,-6.776017547E-1,3.223838806E-1,-2.423606068E-1
1.814311789E0,-6.385064125E-1,2.942841053E-1,-2.057087123E-1
1.816418403E0,-5.969675779E-1,2.661843300E-1,-1.702785641E-1
1.818525018E0,-5.505418777E-1,2.319758981E-1,-1.336266696E-1
1.820631684E0,-5.053378940E-1,1.989891976E-1,-9.941824526E-2
1.822738299E0,-4.552469850E-1,1.598938555E-1,-6.765327603E-2
1.824844914E0,-4.088212550E-1,1.354592592E-1,-4.077522457E-2
1.826951528E0,-3.636172712E-1,1.024725661E-1,-1.634063199E-2
1.829058143E0,-3.184132576E-1,7.315105945E-2,3.207040019E-3
1.831164757E0,-2.817613780E-1,5.604684353E-2,1.908952370E-2
1.833271372E0,-2.451094985E-1,4.260781780E-2,3.008509055E-2
1.835377987E0,-2.133445293E-1,2.794706449E-2,3.863719851E-2
1.837484653E0,-1.901316643E-1,1.328630932E-2,4.474584386E-2
1.839591268E0,-1.656970680E-1,3.512472380E-3,4.596757516E-2
1.841697882E0,-1.498145908E-1,-1.527161949E-4,4.718930274E-2
1.843804497E0,-1.351538301E-1,-7.483093534E-3,4.352411628E-2
1.845911112E0,-1.302669197E-1,-5.039634649E-3,3.863719851E-2
1.848017726E0,-1.266017258E-1,-2.596175298E-3,3.008509055E-2
1.850124393E0,-1.302669197E-1,-3.817904973E-3,1.908952370E-2
1.852231007E0,-1.375972927E-1,-2.596175298E-3,6.872228812E-3
1.854337622E0,-1.498145908E-1,3.512472380E-3,-6.566796452E-3
1.856444237E0,-1.608101577E-1,7.177661173E-3,-1.756236330E-2
1.858550851E0,-1.779143661E-1,1.328630932E-2,-3.100138716E-2
1.860657466E0,-1.937968582E-1,2.183841541E-2,-4.321868345E-2
1.862764080E0,-2.121227980E-1,2.916879393E-2,-5.421425030E-2
1.864870747E0,-2.267835438E-1,4.138609022E-2,-6.398808211E-2
1.866977362E0,-2.402225733E-1,5.604684353E-2,-7.254019380E-2
1.869083976E0,-2.548833191E-1,7.070759684E-2,-7.742711157E-2
1.871190591E0,-2.671006322E-1,8.659008145E-2,-8.231402934E-2
1.873297257E0,-2.744309902E-1,1.049160287E-1,-8.597921580E-2
1.875403820E0,-2.817613780E-1,1.183550507E-1,-8.720094711E-2
1.877510487E0,-2.854265571E-1,1.317940801E-1,-8.597921580E-2
1.879617101E0,-2.866483033E-1,1.513417512E-1,-8.353576064E-2
1.881723716E0,-2.866483033E-1,1.611155868E-1,-7.864884287E-2
1.883830382E0,-2.842048407E-1,1.708894223E-1,-7.254019380E-2
1.885936945E0,-2.780961990E-1,1.831067204E-1,-6.398808211E-2
1.888043559E0,-2.707658112E-1,1.941022873E-1,-5.054906011E-2
1.890150226E0,-2.451094985E-1,1.586721241E-1,-3.100138716E-2
1.892256841E0,-2.060141414E-1,4.016435891E-2,4.428769462E-3
1.894363455E0,-1.705839932E-1,-2.458730713E-2,4.841103405E-2
1.896470070E0,-1.424842030E-1,-3.436114267E-2,9.117157012E-2
1.898576684E0,-1.192713454E-1,-1.847865991E-2,1.327103674E-1
1.900683351E0,-1.033888608E-1,-1.374445739E-3,1.669187993E-1
1.902789966E0,-9.239330143E-2,1.206457894E-2,1.974620372E-1
1.904896580E0,-8.628465235E-2,3.527744114E-2,2.243400961E-1
1.907003195E0,-8.750637621E-2,4.627300799E-2,2.451094985E-1
1.909109809E0,-8.872810751E-2,5.604684353E-2,2.622137070E-1
1.911216476E0,-9.361502528E-2,6.704241037E-2,2.756527364E-1
1.913323091E0,-1.009454057E-1,7.803797722E-2,2.866483033E-1
1.915429705E0,-1.082757786E-1,8.414662629E-2,2.939786613E-1
1.917536320E0,-1.143844277E-1,9.147699922E-2,3.013090491E-1
1.919642934E0,-1.204930767E-1,9.880737960E-2,3.061959743E-1
1.921749549E0,-1.253799945E-1,1.049160287E-1,3.098611534E-1
1.923856164E0,-1.339320987E-1,1.085812151E-1,3.110828996E-1
1.925962830E0,-1.339320987E-1,1.171333194E-1,3.135263622E-1
1.928069445E0,-1.327103674E-1,1.244636998E-1,3.135263622E-1
1.930176059E0,-1.278234571E-1,1.256854236E-1,3.123046160E-1
1.932282674E0,-1.168278903E-1,1.232419685E-1,3.110828996E-1
1.934389289E0,-1.058323234E-1,1.244636998E-1,3.074176908E-1
1.936495955E0,-8.750637621E-2,1.256854236E-1,3.037525117E-1
1.938602518E0,-7.040216774E-2,1.281288862E-1,3.013090491E-1
1.940709184E0,-5.085449293E-2,1.317940801E-1,2.988655865E-1
1.942815799E0,-3.008509055E-2,1.379027218E-1,2.964221239E-1
1.944922414E0,-1.053741761E-2,1.452330947E-1,2.964221239E-1
1.947029028E0,1.023198478E-2,1.611155868E-1,2.952004075E-1
1.949135695E0,2.855792828E-2,1.696676910E-1,2.964221239E-1
1.951242309E0,4.444041103E-2,1.806632578E-1,2.952004075E-1
1.953348924E0,6.276635826E-2,1.941022873E-1,2.939786613E-1
1.955455539E0,8.109229803E-2,2.050978541E-1,2.915352285E-1
1.957562153E0,9.941824526E-2,2.185368687E-1,2.878700197E-1
1.959668820E0,1.128572673E-1,2.307541668E-1,2.829830945E-1
1.961775382E0,1.311832070E-1,2.466366589E-1,2.756527364E-1
1.963882049E0,1.434005052E-1,2.649625838E-1,2.683223486E-1
1.965988664E0,1.580612659E-1,2.735147178E-1,2.597702444E-1
1.968095278E0,1.739437431E-1,2.771798968E-1,2.524398565E-1
1.970201893E0,1.861610413E-1,2.808450758E-1,2.475529462E-1
1.972308507E0,1.983783394E-1,2.759581506E-1,2.414443046E-1
1.974415122E0,2.069304436E-1,2.722929716E-1,2.377791107E-1
1.976521737E0,2.154825479E-1,2.674060464E-1,2.328922004E-1
1.978628403E0,2.252563834E-1,2.625191510E-1,2.304487377E-1
1.980735018E0,2.228129357E-1,2.576322258E-1,2.267835438E-1
1.982841632E0,2.179260105E-1,2.515235841E-1,2.218966335E-1
1.984948247E0,2.105956376E-1,2.503018379E-1,2.170097083E-1
1.987054862E0,1.983783394E-1,2.417497337E-1,2.096793354E-1
1.989161528E0,1.800523996E-1,2.454149276E-1,2.023489624E-1
1.991268143E0,1.605047137E-1,2.417497337E-1,1.913533956E-1
1.993374757E0,1.397353113E-1,2.454149276E-1,1.791360974E-1
1.995481372E0,1.153007299E-1,2.466366589E-1,1.669187993E-1
1.997587987E0,9.330959618E-2,2.539670467E-1,1.547015011E-1
1.999694601E0,7.131846249E-2,2.551887631E-1,1.400407553E-1
2.001801216E0,4.688387364E-2,2.637408674E-1,1.278234571E-1
2.003907882E0,2.489273995E-2,2.710712552E-1,1.168278903E-1
2.006014497E0,2.901607659E-3,2.820668221E-1,1.070540547E-1
2.008121112E0,-1.786779426E-2,2.906189263E-1,9.972367436E-2
2.010227726E0,-3.619373962E-2,2.991710305E-1,9.361502528E-2
2.012334341E0,-5.207622424E-2,3.040579557E-1,9.117157012E-2
2.014441007E0,-6.551524997E-2,3.113883138E-1,8.750637621E-2
2.016547622E0,-7.773254067E-2,3.150535226E-1,8.628465235E-2
2.018654237E0,-8.872810751E-2,3.187187016E-1,8.628465235E-2
2.020760851E0,-9.850194305E-2,3.272708058E-1,8.750637621E-2
2.022867466E0,-1.070540547E-1,3.346011937E-1,8.994983882E-2
2.024974080E0,-1.094975099E-1,3.455967605E-1,9.361502528E-2
2.027080695E0,-1.131627038E-1,3.553705812E-1,9.728021920E-2
2.029187362E0,-1.168278903E-1,3.651444316E-1,1.033888608E-1
2.031293976E0,-1.168278903E-1,3.785834610E-1,1.094975099E-1
2.033400591E0,-1.131627038E-1,3.895790279E-1,1.192713454E-1
2.035507205E0,-1.119409725E-1,4.017963111E-1,1.314886510E-1
2.037613820E0,-1.094975099E-1,4.127918780E-1,1.437059343E-1
2.039720487E0,-1.119409725E-1,4.152353406E-1,1.559232324E-1
2.041827101E0,-1.131627038E-1,4.189005196E-1,1.718057245E-1
2.043933768E0,-1.180496216E-1,4.176788032E-1,1.852447391E-1
2.046040330E0,-1.229365394E-1,4.176788032E-1,1.999054998E-1
2.048146945E0,-1.290451884E-1,4.176788032E-1,2.133445293E-1
2.050253559E0,-1.388190240E-1,4.091266990E-1,2.280052751E-1
2.052360226E0,-1.498145908E-1,4.054614902E-1,2.390008420E-1
2.054466789E0,-1.644753367E-1,4.005745649E-1,2.499964088E-1
2.056573455E0,-1.754709035E-1,3.969093859E-1,2.622137070E-1
2.058680070E0,-1.876882017E-1,3.932442069E-1,2.707658112E-1
2.060786684E0,-1.962403059E-1,3.846921027E-1,2.805396616E-1
2.062893299E0,-2.023489624E-1,3.834703565E-1,2.903134823E-1
2.064999914E0,-2.072358727E-1,3.785834610E-1,3.000873327E-1
2.067106528E0,-2.072358727E-1,3.761399984E-1,3.123046160E-1
2.069213195E0,-2.072358727E-1,3.749182522E-1,3.220784664E-1
2.071319809E0,-1.999054998E-1,3.761399984E-1,3.330740333E-1
2.073426424E0,-1.889099330E-1,3.712530732E-1,3.440696001E-1
2.075533039E0,-1.803578287E-1,3.712530732E-1,3.550651670E-1
2.077639653E0,-1.632536054E-1,3.675878942E-1,3.660607338E-1
2.079746320E0,-1.485928595E-1,3.627009690E-1,3.770562708E-1
2.081852934E0,-1.278234571E-1,3.651444316E-1,3.868301213E-1
2.083959549E0,-1.107192412E-1,3.614792228E-1,3.941605091E-1
2.086066164E0,-8.750637621E-2,3.627009690E-1,4.002691507E-1
2.088172778E0,-6.673697382E-2,3.651444316E-1,4.063777924E-1
2.090279393E0,-4.474584386E-2,3.688096106E-1,4.100429714E-1
2.092386007E0,-2.031125315E-2,3.712530732E-1,4.124864340E-1
2.094492674E0,4.581485991E-4,3.749182522E-1,4.137081802E-1
2.096599289E0,2.122755162E-2,3.761399984E-1,4.124864340E-1
2.098705903E0,4.321868345E-2,3.798051775E-1,4.088212550E-1
2.100812518E0,6.520981342E-2,3.834703565E-1,4.027126133E-1
2.102919132E0,8.842267841E-2,3.822486401E-1,3.966039717E-1
2.105025799E0,1.104138121E-1,3.810268939E-1,3.880518377E-1
2.107132414E0,1.348484010E-1,3.761399984E-1,3.807214797E-1
2.109239028E0,1.592829973E-1,3.761399984E-1,3.685041666E-1
2.111345643E0,1.800523996E-1,3.785834610E-1,3.562868834E-1
2.113452257E0,2.020435184E-1,3.724747896E-1,3.440696001E-1
2.115558872E0,2.240346521E-1,3.773617148E-1,3.306305707E-1
2.117665487E0,2.448040545E-1,3.736965358E-1,3.171915412E-1
2.119772101E0,2.655734718E-1,3.736965358E-1,3.025307953E-1
2.121878768E0,2.814559340E-1,3.688096106E-1,2.890917659E-1
2.123985382E0,2.985601723E-1,3.712530732E-1,2.756527364E-1
2.126091997E0,3.144426346E-1,3.663661480E-1,2.634354234E-1
2.128198612E0,3.291034102E-1,3.627009690E-1,2.548833191E-1
2.130305278E0,3.425424397E-1,3.578140438E-1,2.499964088E-1
2.132411841E0,3.535379767E-1,3.602575064E-1,2.438877672E-1
2.134518507E0,3.596466482E-1,3.578140438E-1,2.438877672E-1
2.136625122E0,3.694204688E-1,3.517054021E-1,2.438877672E-1
2.138731737E0,3.767508566E-1,3.468184769E-1,2.475529462E-1
2.140838403E0,3.791943192E-1,3.455967605E-1,2.524398565E-1
2.142945018E0,3.828594983E-1,3.370446563E-1,2.585485280E-1
2.145051580E0,3.828594983E-1,3.321577311E-1,2.683223486E-1
2.147158247E0,3.865246773E-1,3.248273432E-1,2.780961990E-1
2.149264862E0,3.840812445E-1,3.187187016E-1,2.939786613E-1
2.151371476E0,3.877464235E-1,3.174969554E-1,3.061959743E-1
2.153478091E0,3.865246773E-1,3.113883138E-1,3.233001828E-1
2.155584705E0,3.865246773E-1,3.077231348E-1,3.379609287E-1
2.157691372E0,3.853029609E-1,3.040579557E-1,3.562868834E-1
2.159797987E0,3.840812445E-1,2.991710305E-1,3.721693754E-1
2.161904601E0,3.877464235E-1,2.918406427E-1,3.868301213E-1
2.164011216E0,3.877464235E-1,2.857320011E-1,3.990474045E-1
2.166117830E0,3.901898861E-1,2.820668221E-1,4.124864340E-1
2.168224497E0,3.926333487E-1,2.771798968E-1,4.234820008E-1
2.170331059E0,3.938550651E-1,2.722929716E-1,4.332558513E-1
2.172437726E0,3.938550651E-1,2.649625838E-1,4.405862093E-1
2.174544341E0,3.962985277E-1,2.637408674E-1,4.430296719E-1
2.176650955E0,3.999637067E-1,2.600756884E-1,4.454731345E-1
2.178757622E0,3.975202441E-1,2.612974048E-1,4.454731345E-1
2.180864237E0,4.011854529E-1,2.600756884E-1,4.430296719E-1
2.182970851E0,3.975202441E-1,2.564104795E-1,4.381427765E-1
2.185077466E0,3.962985277E-1,2.576322258E-1,4.332558513E-1
2.187184080E0,3.938550651E-1,2.527453005E-1,4.271472096E-1
2.189290695E0,3.975202441E-1,2.551887631E-1,4.185950756E-1
2.191397309E0,3.938550651E-1,2.503018379E-1,4.124864340E-1
2.193503924E0,3.901898861E-1,2.490801066E-1,4.014908671E-1
2.195610591E0,3.901898861E-1,2.490801066E-1,3.929387629E-1
2.197717153E0,3.926333487E-1,2.490801066E-1,3.831649423E-1
2.199823820E0,3.938550651E-1,2.551887631E-1,3.758345544E-1
2.201930434E0,3.926333487E-1,2.551887631E-1,3.648389876E-1
2.204037049E0,3.914116025E-1,2.539670467E-1,3.575085998E-1
2.206143664E0,3.901898861E-1,2.576322258E-1,3.513999581E-1
2.208250278E0,3.877464235E-1,2.576322258E-1,3.465130329E-1
2.210356945E0,3.828594983E-1,2.551887631E-1,3.440696001E-1
2.212463559E0,3.804160357E-1,2.490801066E-1,3.416261375E-1
2.214570174E0,3.804160357E-1,2.405280024E-1,3.391826749E-1
2.216676789E0,3.816377819E-1,2.295324355E-1,3.367392123E-1
2.218783403E0,3.828594983E-1,2.173151523E-1,3.342957497E-1
2.220890018E0,3.853029609E-1,2.026543915E-1,3.342957497E-1
2.222996684E0,3.901898861E-1,1.867718995E-1,3.306305707E-1
2.225103299E0,3.975202441E-1,1.672242284E-1,3.281871080E-1
2.227209914E0,4.024071693E-1,1.550069451E-1,3.233001828E-1
2.229316528E0,4.109592736E-1,1.379027218E-1,3.184132576E-1
2.231423143E0,4.207331240E-1,1.183550507E-1,3.135263622E-1
2.233529809E0,4.317286909E-1,9.880737960E-2,3.074176908E-1
2.235636424E0,4.427242577E-1,7.559451461E-2,3.025307953E-1
2.237742987E0,4.573850036E-1,4.505127668E-2,2.952004075E-1
2.239849601E0,4.708240330E-1,2.061668597E-2,2.866483033E-1
2.241956268E0,4.805978537E-1,-8.704823442E-3,2.793179154E-1
2.244062882E0,4.879282415E-1,-4.169152305E-2,2.671006322E-1
2.246169497E0,4.928151667E-1,-7.101303339E-2,2.561050653E-1
2.248276164E0,5.001455545E-1,-1.027780026E-1,2.438877672E-1
2.250382778E0,4.952586293E-1,-1.345429718E-1,2.316704690E-1
2.252489393E0,4.928151667E-1,-1.638644785E-1,2.182314396E-1
2.254596007E0,4.891499579E-1,-1.956294477E-1,2.047924101E-1
2.256702622E0,4.793761373E-1,-2.298378795E-1,1.925751269E-1
2.258809237E0,4.671588540E-1,-2.640463114E-1,1.828012913E-1
2.260915903E0,4.524980783E-1,-2.921460867E-1,1.718057245E-1
2.263022518E0,4.366155863E-1,-3.263545036E-1,1.632536054E-1
2.265129132E0,4.207331240E-1,-3.520108163E-1,1.534797698E-1
2.267235747E0,4.036289155E-1,-3.776671588E-1,1.461493969E-1
2.269342362E0,3.828594983E-1,-4.057669342E-1,1.388190240E-1
2.271448976E0,3.645335436E-1,-4.277580678E-1,1.302669197E-1
2.273555591E0,3.376555145E-1,-4.570795596E-1,1.229365394E-1
2.275662257E0,3.132209182E-1,-4.839576185E-1,1.156061590E-1
2.277768872E0,2.863428593E-1,-5.120574236E-1,1.070540547E-1
2.279875487E0,2.545779049E-1,-5.413789153E-1,9.850194305E-2
2.281982101E0,2.228129357E-1,-5.694786906E-1,8.506292105E-2
2.284088716E0,1.922696829E-1,-6.000219584E-1,7.284562290E-2
2.286195382E0,1.556178033E-1,-6.268999577E-1,5.940660089E-2
2.288301945E0,1.262962967E-1,-6.464476585E-1,4.230238497E-2
2.290408612E0,9.208786488E-2,-6.745474339E-1,2.519817278E-2
2.292515226E0,5.910116807E-2,-6.940951347E-1,6.872228812E-3
2.294621841E0,2.733619884E-2,-7.136427760E-1,-1.145371422E-2
2.296728455E0,2.901607659E-3,-7.258600593E-1,-3.222311661E-2
2.298835070E0,-2.275471389E-2,-7.380773425E-1,-5.177079141E-2
2.300941737E0,-4.718930274E-2,-7.454077601E-1,-7.009673119E-2
2.303048351E0,-6.551524997E-2,-7.502946854E-1,-8.842267841E-2
2.305154914E0,-8.261945844E-2,-7.564033270E-1,-1.043051630E-1
2.307261580E0,-9.605848789E-2,-7.515164018E-1,-1.189659163E-1
2.309368195E0,-1.107192412E-1,-7.441860437E-1,-1.287397593E-1
2.311474809E0,-1.192713454E-1,-7.344121933E-1,-1.397353113E-1
2.313581476E0,-1.302669197E-1,-7.197514176E-1,-1.446222365E-1
2.315688091E0,-1.327103674E-1,-7.002037764E-1,-1.470656991E-1
2.317794705E0,-1.339320987E-1,-6.721040010E-1,-1.470656991E-1
2.319901320E0,-1.327103674E-1,-6.427824497E-1,-1.434005052E-1
2.322007934E0,-1.278234571E-1,-6.110175252E-1,-1.385135949E-1
2.324114601E0,-1.192713454E-1,-5.755873322E-1,-1.311832070E-1
2.326221164E0,-1.058323234E-1,-5.401571989E-1,-1.214093715E-1
2.328327830E0,-9.239330143E-2,-4.986183643E-1,-1.128572673E-1
2.330434445E0,-7.406735420E-2,-4.497492015E-1,-1.030834317E-1
2.332541059E0,-5.329795182E-2,-4.008800089E-1,-9.330959618E-2
2.334647674E0,-3.252854943E-2,-3.471239209E-1,-8.475748450E-2
2.336754289E0,-1.298087649E-2,-2.872591615E-1,-7.620538026E-2
2.338860903E0,4.123337101E-3,-2.261726856E-1,-7.009673119E-2
2.340967570E0,1.511890348E-2,-1.687513888E-1,-6.276635826E-2
2.343074184E0,2.367101051E-2,-1.137735620E-1,-6.154462695E-2
2.345180799E0,2.611446939E-2,-6.490438432E-2,-6.032289565E-2
2.347287414E0,2.367101051E-2,-1.847865991E-2,-6.520981342E-2
2.349394028E0,1.389717404E-2,2.428187430E-2,-7.131846249E-2
2.351500643E0,-7.635809598E-4,6.093376130E-2,-8.109229803E-2
2.353607309E0,-1.908952370E-2,9.392046183E-2,-9.086613357E-2
2.355713924E0,-4.474584386E-2,1.220202371E-1,-1.006399691E-1
2.357820539E0,-6.918043643E-2,1.488982886E-1,-1.140789986E-1
2.359927153E0,-1.009454057E-1,1.708894223E-1,-1.287397593E-1
2.362033768E0,-1.327103674E-1,1.916588247E-1,-1.470656991E-1
2.364140382E0,-1.705839932E-1,2.112064958E-1,-1.641699076E-1
2.366246997E0,-2.109010667E-1,2.258672565E-1,-1.837175786E-1
2.368353664E0,-2.536616027E-1,2.417497337E-1,-2.044869810E-1
2.370460226E0,-2.939786613E-1,2.564104795E-1,-2.252563834E-1
2.372566893E0,-3.416261375E-1,2.674060464E-1,-2.472475171E-1
2.374673507E0,-3.807214797E-1,2.857320011E-1,-2.655734718E-1
2.376780122E0,-4.173733592E-1,3.016144931E-1,-2.826776803E-1
2.378886789E0,-4.528035223E-1,3.150535226E-1,-2.985601723E-1
2.380993403E0,-4.833467603E-1,3.297142684E-1,-3.095557392E-1
2.383100018E0,-5.065596104E-1,3.443750143E-1,-3.156643808E-1
2.385206632E0,-5.199986696E-1,3.627009690E-1,-3.193295598E-1
2.387313247E0,-5.236638188E-1,3.859138191E-1,-3.168860972E-1
2.389419862E0,-5.212203860E-1,4.005745649E-1,-3.119991720E-1
2.391526476E0,-5.053378940E-1,4.176788032E-1,-3.034470677E-1
2.393633143E0,-4.821250141E-1,4.384481907E-1,-2.900080681E-1
2.395739757E0,-4.491383433E-1,4.592176080E-1,-2.741255760E-1
2.397846372E0,-4.075995386E-1,4.824304581E-1,-2.545779049E-1
2.399952987E0,-3.587303460E-1,5.019781590E-1,-2.301433086E-1
2.402059601E0,-3.049742281E-1,5.190823674E-1,-2.044869810E-1
2.404166216E0,-2.475529462E-1,5.361865759E-1,-1.727220118E-1
2.406272882E0,-1.889099330E-1,5.532907844E-1,-1.397353113E-1
2.408379497E0,-1.278234571E-1,5.679515004E-1,-1.043051630E-1
2.410486112E0,-6.307178736E-2,5.826122761E-1,-6.643154472E-2
2.412592726E0,-1.985310577E-3,5.923861265E-1,-2.611446939E-2
2.414699341E0,5.421425030E-2,5.972730517E-1,1.420260593E-2
2.416805955E0,1.116355360E-1,5.984947681E-1,5.451968312E-2
2.418912570E0,1.666133702E-1,5.948295593E-1,9.483675659E-2
2.421019237E0,2.167042792E-1,5.923861265E-1,1.314886510E-1
2.423125851E0,2.655734718E-1,5.801688433E-1,1.681405306E-1
2.425232466E0,3.107774556E-1,5.655080676E-1,2.023489624E-1
2.427339080E0,3.535379767E-1,5.508472919E-1,2.341139317E-1
2.429445695E0,3.901898861E-1,5.337430835E-1,2.634354234E-1
2.431552309E0,4.268417656E-1,5.105302334E-1,2.915352285E-1
2.433658976E0,4.537198246E-1,4.885390997E-1,3.159697950E-1
2.435765591E0,4.805978537E-1,4.665479660E-1,3.391826749E-1
2.437872205E0,5.001455545E-1,4.421133697E-1,3.550651670E-1
2.439978820E0,5.123628378E-1,4.152353406E-1,3.697259128E-1
2.442085434E0,5.184714794E-1,3.846921027E-1,3.794997334E-1
2.444192101E0,5.196931958E-1,3.504836559E-1,3.831649423E-1
2.446298716E0,5.160280466E-1,3.199404180E-1,3.831649423E-1
2.448405330E0,5.025889874E-1,2.784016132E-1,3.819431961E-1
2.450511945E0,4.867065251E-1,2.405280024E-1,3.782780170E-1
2.452618559E0,4.683805704E-1,2.026543915E-1,3.685041666E-1
2.454725174E0,4.463894367E-1,1.635590494E-1,3.562868834E-1
2.456831789E0,4.195113778E-1,1.195767820E-1,3.404043913E-1
2.458938455E0,3.901898861E-1,7.315105945E-2,3.208567202E-1
2.461045070E0,3.596466482E-1,3.527744114E-2,2.976438701E-1
2.463151684E0,3.278816640E-1,-8.704823442E-3,2.732092738E-1
2.465258299E0,2.948949635E-1,-5.024362728E-2,2.438877672E-1
2.467364914E0,2.619082630E-1,-8.689551800E-2,2.109010667E-1
2.469471528E0,2.276998460E-1,-1.235474050E-1,1.791360974E-1
2.471578143E0,1.910479665E-1,-1.540906429E-1,1.449276656E-1
2.473684757E0,1.580612659E-1,-1.797469556E-1,1.082757786E-1
2.475791424E0,1.238528341E-1,-2.029598206E-1,7.162389904E-2
2.477898039E0,9.208786488E-2,-2.273944169E-1,3.497200832E-2
2.480004653E0,6.154462695E-2,-2.506072819E-1,-1.679878100E-3
2.482111268E0,3.344484791E-2,-2.664897740E-1,-3.711003438E-2
2.484217882E0,9.010255337E-3,-2.860374451E-1,-7.009673119E-2
2.486324497E0,-1.420260593E-2,-3.031416535E-1,-1.018617004E-1
2.488431164E0,-3.130681813E-2,-3.190241456E-1,-1.324049383E-1
2.490537778E0,-4.963276163E-2,-3.336848915E-1,-1.580612659E-1
2.492644393E0,-5.940660089E-2,-3.446804583E-1,-1.824958473E-1
2.494751007E0,-6.673697382E-2,-3.544542789E-1,-2.032652497E-1
2.496857622E0,-7.284562290E-2,-3.568977416E-1,-2.191477418E-1
2.498964237E0,-7.284562290E-2,-3.556760252E-1,-2.313650399E-1
2.501070903E0,-7.162389904E-2,-3.544542789E-1,-2.411388755E-1
2.503177518E0,-6.673697382E-2,-3.471239209E-1,-2.448040545E-1
2.505284132E0,-6.185005978E-2,-3.361283541E-1,-2.472475171E-1
2.507390747E0,-5.329795182E-2,-3.287979662E-1,-2.423606068E-1
2.509497362E0,-4.230238497E-2,-3.129154742E-1,-2.362519503E-1
2.511603976E0,-3.008509055E-2,-2.945895493E-1,-2.264781147E-1
2.513710643E0,-1.298087649E-2,-2.762635946E-1,-2.167042792E-1
2.515817205E0,5.345067009E-3,-2.530507445E-1,-2.057087123E-1
2.517923872E0,2.244928107E-2,-2.286161482E-1,-1.910479665E-1
2.520030487E0,4.688387364E-2,-2.005163580E-1,-1.776089370E-1
2.522137101E0,6.887500733E-2,-1.736383140E-1,-1.653916389E-1
2.524243768E0,9.575305134E-2,-1.382081509E-1,-1.531743407E-1
2.526350330E0,1.214093715E-1,-1.027780026E-1,-1.421787739E-1
2.528456997E0,1.482874304E-1,-6.612611562E-2,-1.311832070E-1
2.530563612E0,1.763872057E-1,-2.580903657E-2,-1.226311028E-1
2.532670226E0,1.983783394E-1,9.621120058E-3,-1.165224537E-1
2.534776841E0,2.240346521E-1,5.238165334E-2,-1.091920808E-1
2.536883455E0,2.460257858E-1,9.025526792E-2,-1.043051630E-1
2.538990070E0,2.667951882E-1,1.293506175E-1,-9.697478265E-2
2.541096684E0,2.802342176E-1,1.660024971E-1,-9.453132749E-2
2.543203351E0,2.948949635E-1,2.038761228E-1,-9.330959618E-2
2.545309966E0,3.058905303E-1,2.344193608E-1,-9.330959618E-2
2.547416580E0,3.119991720E-1,2.637408674E-1,-9.575305134E-2
2.549523195E0,3.168860972E-1,2.869537175E-1,-1.006399691E-1
2.551629862E0,3.205513060E-1,3.089448512E-1,-1.079703495E-1
2.553736424E0,3.193295598E-1,3.321577311E-1,-1.165224537E-1
2.555843091E0,3.168860972E-1,3.492619395E-1,-1.262962967E-1
2.557949705E0,3.095557392E-1,3.614792228E-1,-1.348484010E-1
2.560056320E0,3.034470677E-1,3.749182522E-1,-1.470656991E-1
2.562162934E0,2.948949635E-1,3.834703565E-1,-1.592829973E-1
2.564269549E0,2.863428593E-1,3.969093859E-1,-1.727220118E-1
2.566376164E0,2.790125012E-1,4.005745649E-1,-1.861610413E-1
2.568482778E0,2.631300092E-1,4.066832364E-1,-1.971566081E-1
2.570589445E0,2.509126961E-1,4.140135944E-1,-2.093739063E-1
2.572696059E0,2.386954129E-1,4.237874448E-1,-2.228129357E-1
2.574802674E0,2.228129357E-1,4.237874448E-1,-2.325867712E-1
2.576909289E0,2.057087123E-1,4.237874448E-1,-2.448040545E-1
2.579015955E0,1.910479665E-1,4.250091612E-1,-2.533561587E-1
2.581122518E0,1.751654744E-1,4.201222658E-1,-2.631300092E-1
2.583229184E0,1.641699076E-1,4.127918780E-1,-2.716821134E-1
2.585335799E0,1.482874304E-1,4.030180275E-1,-2.777907550E-1
2.587442414E0,1.385135949E-1,3.920224607E-1,-2.826776803E-1
2.589549028E0,1.299614757E-1,3.798051775E-1,-2.875646055E-1
2.591655643E0,1.226311028E-1,3.663661480E-1,-2.924515009E-1
2.593762309E0,1.165224537E-1,3.480401933E-1,-2.973384261E-1
2.595868924E0,1.116355360E-1,3.333794475E-1,-2.997818887E-1
2.597975539E0,1.091920808E-1,3.187187016E-1,-3.010036349E-1
2.600082153E0,1.079703495E-1,3.016144931E-1,-3.034470677E-1
2.602188768E0,1.091920808E-1,2.832885385E-1,-3.034470677E-1
2.604295382E0,1.104138121E-1,2.698495090E-1,-3.010036349E-1
2.606401997E0,1.104138121E-1,2.466366589E-1,-2.961167097E-1
2.608508664E0,1.116355360E-1,2.295324355E-1,-2.900080681E-1
2.610615278E0,1.116355360E-1,2.099847645E-1,-2.851211429E-1
2.612721893E0,1.177441850E-1,1.879936308E-1,-2.741255760E-1
2.614828507E0,1.214093715E-1,1.696676910E-1,-2.655734718E-1
2.616935174E0,1.250745654E-1,1.440113783E-1,-2.545779049E-1
2.619041789E0,1.287397593E-1,1.195767820E-1,-2.423606068E-1
2.621148403E0,1.336266696E-1,9.636391699E-2,-2.313650399E-1
2.623255018E0,1.397353113E-1,7.437278330E-2,-2.179260105E-1
2.625361632E0,1.421787739E-1,5.238165334E-2,-2.044869810E-1
2.627468247E0,1.446222365E-1,2.428187430E-2,-1.910479665E-1
2.629574862E0,1.470656991E-1,-1.374445739E-3,-1.788306683E-1
2.631681476E0,1.543960720E-1,-1.970038936E-2,-1.653916389E-1
2.633788091E0,1.556178033E-1,-3.680460155E-2,-1.507308781E-1
2.635894757E0,1.592829973E-1,-5.513054505E-2,-1.385135949E-1
2.638001372E0,1.641699076E-1,-7.101303339E-2,-1.262962967E-1
2.640107987E0,1.641699076E-1,-8.445205539E-2,-1.128572673E-1
2.642214601E0,1.702785641E-1,-8.933897316E-2,-1.043051630E-1
2.644321216E0,1.702785641E-1,-9.911280870E-2,-9.208786488E-2
2.646427830E0,1.715002805E-1,-1.015562713E-1,-8.231402934E-2
2.648534445E0,1.702785641E-1,-1.052214578E-1,-7.498364896E-2
2.650641059E0,1.690568328E-1,-1.052214578E-1,-6.765327603E-2
2.652747726E0,1.666133702E-1,-1.039997265E-1,-6.154462695E-2
2.654854341E0,1.641699076E-1,-9.789107740E-2,-5.665770918E-2
2.656960955E0,1.592829973E-1,-9.178243577E-2,-5.177079141E-2
2.659067570E0,1.543960720E-1,-8.567378670E-2,-4.810560122E-2
2.661174184E0,1.507308781E-1,-7.345648855E-2,-4.321868345E-2
2.663280851E0,1.495091617E-1,-5.879573524E-2,-4.077522457E-2
2.665387466E0,1.434005052E-1,-4.535670951E-2,-3.711003438E-2
2.667494080E0,1.397353113E-1,-2.703076601E-2,-3.588830680E-2
2.669600695E0,1.409570426E-1,-1.114828233E-2,-3.711003438E-2
2.671707309E0,1.360701323E-1,1.206457894E-2,-3.711003438E-2
2.673813924E0,1.372918636E-1,3.039052337E-2,-3.833176568E-2
2.675920591E0,1.360701323E-1,4.627300799E-2,-3.711003438E-2
2.678027153E0,1.385135949E-1,6.582067907E-2,-4.077522457E-2
2.680133820E0,1.336266696E-1,8.170316368E-2,-4.321868345E-2
2.682240434E0,1.336266696E-1,9.880737960E-2,-4.566214234E-2
2.684347049E0,1.299614757E-1,1.085812151E-1,-4.810560122E-2
2.686453664E0,1.250745654E-1,1.232419685E-1,-4.810560122E-2
2.688560278E0,1.201876476E-1,1.330158114E-1,-4.810560122E-2
2.690666893E0,1.116355360E-1,1.403461844E-1,-4.566214234E-2
2.692773559E0,1.055268943E-1,1.464548260E-1,-4.688387364E-2
2.694880174E0,9.697478265E-2,1.476765573E-1,-4.444041103E-2
2.696986789E0,8.475748450E-2,1.452330947E-1,-3.955349326E-2
2.699093403E0,7.131846249E-2,1.525634825E-1,-3.588830680E-2
2.701200018E0,5.787943676E-2,1.574503928E-1,-2.855792828E-2
2.703306684E0,4.199695215E-2,1.550069451E-1,-2.000582218E-2
2.705413299E0,2.611446939E-2,1.537852138E-1,-1.145371422E-2
2.707519914E0,1.023198478E-2,1.452330947E-1,-5.345067009E-3
2.709626528E0,-5.650499370E-3,1.330158114E-1,1.985310577E-3
2.711733143E0,-2.275471389E-2,1.183550507E-1,9.315688163E-3
2.713839757E0,-3.863719851E-2,1.073594838E-1,1.786779426E-2
2.715946372E0,-5.451968312E-2,9.025526792E-2,2.153298259E-2
2.718052987E0,-6.795870513E-2,7.070759684E-2,2.764163166E-2
2.720159653E0,-8.017600328E-2,5.115992576E-2,3.252854943E-2
2.722266268E0,-9.117157012E-2,3.283398226E-2,3.375028074E-2
2.724372882E0,-1.009454057E-1,1.450803876E-2,3.619373962E-2
2.726479497E0,-1.070540547E-1,-1.374445739E-3,3.863719851E-2
2.728586112E0,-1.143844277E-1,-1.970038936E-2,4.108065739E-2
2.730692726E0,-1.180496216E-1,-3.313941509E-2,4.596757516E-2
2.732799341E0,-1.204930767E-1,-4.535670951E-2,4.841103405E-2
2.734906007E0,-1.192713454E-1,-5.513054505E-2,5.207622424E-2
2.737012622E0,-1.180496216E-1,-6.612611562E-2,5.329795182E-2
2.739119237E0,-1.156061590E-1,-7.467821985E-2,5.696314201E-2
2.741225851E0,-1.156061590E-1,-7.834340632E-2,6.062832847E-2
2.743332518E0,-1.094975099E-1,-8.445205539E-2,6.062832847E-2
2.745439132E0,-1.082757786E-1,-9.178243577E-2,6.185005978E-2
2.747545695E0,-1.009454057E-1,-9.544762224E-2,6.185005978E-2
2.749652362E0,-9.850194305E-2,-9.789107740E-2,5.940660089E-2
2.751758976E0,-9.361502528E-2,-1.039997265E-1,5.818486959E-2
2.753865591E0,-9.117157012E-2,-1.113301069E-1,5.696314201E-2
2.755972205E0,-8.628465235E-2,-1.137735620E-1,5.696314201E-2
2.758078820E0,-8.261945844E-2,-1.125518382E-1,5.451968312E-2
2.760185434E0,-8.139773458E-2,-1.125518382E-1,5.207622424E-2
2.762292101E0,-7.895427197E-2,-1.101083755E-1,4.963276163E-2
2.764398716E0,-7.895427197E-2,-1.113301069E-1,4.963276163E-2
2.766505330E0,-7.773254067E-2,-1.149952933E-1,5.085449293E-2
2.768611945E0,-7.773254067E-2,-1.198822111E-1,5.207622424E-2
2.770718559E0,-7.284562290E-2,-1.247691289E-1,5.574141070E-2
2.772825226E0,-6.918043643E-2,-1.382081509E-1,5.818486959E-2
2.774931789E0,-6.551524997E-2,-1.516471803E-1,5.696314201E-2
2.777038455E0,-5.574141070E-2,-1.626427472E-1,5.696314201E-2
2.779145070E0,-5.085449293E-2,-1.748600453E-1,5.574141070E-2
2.781251684E0,-4.352411628E-2,-1.919642538E-1,5.085449293E-2
2.783358299E0,-3.497200832E-2,-2.102901936E-1,4.474584386E-2
2.785464914E0,-2.519817278E-2,-2.273944169E-1,3.619373962E-2
2.787571580E0,-1.786779426E-2,-2.506072819E-1,3.008509055E-2
2.789678195E0,-6.872228812E-3,-2.628245652E-1,2.031125315E-2
2.791784757E0,4.581485991E-4,-2.738201320E-1,8.093958721E-3
2.793891424E0,6.566796452E-3,-2.909243405E-1,-2.901607659E-3
2.795998039E0,1.145371422E-2,-3.043633699E-1,-1.634063199E-2
2.798104653E0,1.634063199E-2,-3.165806830E-1,-3.222311661E-2
2.800211268E0,1.756236330E-2,-3.373500705E-1,-4.932733253E-2
2.802317934E0,1.878409274E-2,-3.581194878E-1,-6.887500733E-2
2.804424497E0,1.756236330E-2,-3.886627257E-1,-9.086613357E-2
2.806531164E0,1.634063199E-2,-4.094321132E-1,-1.128572673E-1
2.808637778E0,1.756236330E-2,-4.363101721E-1,-1.348484010E-1
2.810744393E0,1.389717404E-2,-4.644099474E-1,-1.605047137E-1
2.812851007E0,1.634063199E-2,-4.900662601E-1,-1.824958473E-1
2.814957622E0,1.511890348E-2,-5.120574236E-1,-2.081521749E-1
2.817064237E0,1.389717404E-2,-5.364919901E-1,-2.325867712E-1
2.819170903E0,1.267544460E-2,-5.597048402E-1,-2.582430840E-1
2.821277518E0,1.023198478E-2,-5.829176903E-1,-2.851211429E-1
2.823384132E0,6.566796452E-3,-6.012436748E-1,-3.119991720E-1
2.825490747E0,1.679878100E-3,-6.256782413E-1,-3.364337683E-1
2.827597362E0,-5.650499370E-3,-6.440041661E-1,-3.596466482E-1
2.829703976E0,-1.298087649E-2,-6.659952998E-1,-3.804160357E-1
2.831810643E0,-2.275471389E-2,-6.892082095E-1,-3.999637067E-1
2.833917257E0,-2.764163166E-2,-7.063124180E-1,-4.158461988E-1
2.836023872E0,-3.252854943E-2,-7.234166265E-1,-4.305069447E-1
2.838130487E0,-3.375028074E-2,-7.356339097E-1,-4.415025115E-1
2.840237101E0,-3.252854943E-2,-7.478511930E-1,-4.476111531E-1
2.842343716E0,-3.130681813E-2,-7.576250434E-1,-4.500546157E-1
2.844450330E0,-3.008509055E-2,-7.600684762E-1,-4.500546157E-1
2.846556997E0,-2.275471389E-2,-7.588467598E-1,-4.488328993E-1
2.848663612E0,-1.786779426E-2,-7.478511930E-1,-4.415025115E-1
2.850770226E0,-9.315688163E-3,-7.331904769E-1,-4.317286909E-1
2.852876841E0,4.581485991E-4,-7.185297012E-1,-4.195113778E-1
2.854983455E0,9.010255337E-3,-6.965385675E-1,-4.048506320E-1
2.857090070E0,1.634063199E-2,-6.830995679E-1,-3.901898861E-1
2.859196737E0,2.733619884E-2,-6.635518670E-1,-3.730856776E-1
2.861303351E0,3.588830680E-2,-6.427824497E-1,-3.547597229E-1
2.863409966E0,4.444041103E-2,-6.207913160E-1,-3.352120519E-1
2.865516580E0,5.299251899E-2,-5.975784659E-1,-3.168860972E-1
2.867623195E0,6.032289565E-2,-5.731438994E-1,-2.985601723E-1
2.869729809E0,6.154462695E-2,-5.499309897E-1,-2.802342176E-1
2.871836476E0,6.398808211E-2,-5.206094980E-1,-2.631300092E-1
2.873943039E0,5.787943676E-2,-4.998401105E-1,-2.472475171E-1
2.876049705E0,4.688387364E-2,-4.741837978E-1,-2.338084877E-1
2.878156320E0,3.222311661E-2,-4.546361268E-1,-2.252563834E-1
2.880262934E0,1.023198478E-2,-4.399753511E-1,-2.154825479E-1
2.882369549E0,-1.298087649E-2,-4.204276800E-1,-2.093739063E-1
2.884476164E0,-4.352411628E-2,-4.033234715E-1,-2.081521749E-1
2.886582830E0,-7.528908551E-2,-3.923279047E-1,-2.069304436E-1
2.888689393E0,-1.156061590E-1,-3.874409795E-1,-2.105956376E-1
2.890796059E0,-1.534797698E-1,-3.776671588E-1,-2.142608166E-1
2.892902674E0,-1.937968582E-1,-3.727802336E-1,-2.240346521E-1
2.895009289E0,-2.377791107E-1,-3.740019500E-1,-2.338084877E-1
2.897115903E0,-2.817613780E-1,-3.703367710E-1,-2.460257858E-1
2.899222518E0,-3.245218992E-1,-3.727802336E-1,-2.594648004E-1
2.901329184E0,-3.636172712E-1,-3.691150546E-1,-2.741255760E-1
2.903435799E0,-4.002691507E-1,-3.617846668E-1,-2.887863219E-1
2.905542414E0,-4.344775677E-1,-3.617846668E-1,-3.058905303E-1
2.907649028E0,-4.650208056E-1,-3.568977416E-1,-3.217730224E-1
2.909755643E0,-4.894554019E-1,-3.556760252E-1,-3.339903057E-1
2.911862257E0,-5.065596104E-1,-3.544542789E-1,-3.474293351E-1
2.913968924E0,-5.126682520E-1,-3.483456373E-1,-3.584249020E-1
2.916075539E0,-5.163334608E-1,-3.385718167E-1,-3.657552898E-1
2.918182153E0,-5.053378940E-1,-3.300196826E-1,-3.706422150E-1
2.920288768E0,-4.882336855E-1,-3.214675784E-1,-3.755291104E-1
2.922395382E0,-4.625773430E-1,-3.068068326E-1,-3.767508566E-1
2.924501997E0,-4.295906425E-1,-2.860374451E-1,-3.743073940E-1
2.926608664E0,-3.917170465E-1,-2.591593862E-1,-3.694204688E-1
2.928715278E0,-3.440696001E-1,-2.322813272E-1,-3.608683646E-1
2.930821893E0,-2.927569449E-1,-1.980729103E-1,-3.462076187E-1
2.932928507E0,-2.316704690E-1,-1.565341055E-1,-3.291034102E-1
2.935035122E0,-1.669187993E-1,-1.162170246E-1,-3.058905303E-1
2.937141737E0,-9.728021920E-2,-6.734783947E-2,-2.826776803E-1
2.939248351E0,-2.153298259E-2,-1.725693047E-2,-2.533561587E-1
2.941355018E0,6.032289565E-2,4.016435891E-2,-2.252563834E-1
2.943461580E0,1.409570426E-1,1.036942974E-1,-1.934914142E-1
2.945568247E0,2.240346521E-1,1.733328849E-1,-1.605047137E-1
2.947674862E0,3.095557392E-1,2.454149276E-1,-1.275180280E-1
2.949781476E0,3.914116025E-1,3.248273432E-1,-9.453132749E-2
2.951888091E0,4.732674956E-1,4.054614902E-1,-6.520981342E-2
2.953994757E0,5.490147471E-1,4.860956371E-1,-3.711003438E-2
2.956101372E0,6.198750138E-1,5.630646348E-1,-1.023198478E-2
2.958207987E0,6.870701313E-1,6.424770355E-1,1.420260593E-2
2.960314601E0,7.432697415E-1,7.182242870E-1,3.497200832E-2
2.962421216E0,7.896954417E-1,7.878628373E-1,5.329795182E-2
2.964527830E0,8.300125003E-1,8.587231636E-1,6.673697382E-2
2.966634445E0,8.629992008E-1,9.234748483E-1,7.773254067E-2
2.968741059E0,8.862120509E-1,9.845613241E-1,8.506292105E-2
2.970847726E0,9.033163190E-1,1.041982651E0,8.872810751E-2
2.972954341E0,9.118683934E-1,1.093295217E0,8.872810751E-2
2.975060955E0,9.167553186E-1,1.142164469E0,8.506292105E-2
2.977167570E0,9.118683934E-1,1.182481527E0,7.773254067E-2
2.979274184E0,8.996511102E-1,1.219133377E0,6.918043643E-2
2.981380799E0,8.813251853E-1,1.250898361E0,5.574141070E-2
2.983487466E0,8.556688428E-1,1.275332928E0,4.230238497E-2
2.985594080E0,8.251255751E-1,1.297324061E0,2.519817278E-2
2.987700695E0,7.848085165E-1,1.307097912E0,8.093958721E-3
2.989807309E0,7.383828163E-1,1.311984777E0,-1.023198478E-2
2.991913924E0,6.907353401E-1,1.304654479E0,-2.977965772E-2
2.994020591E0,6.394227147E-1,1.293658853E0,-4.932733253E-2
2.996127205E0,5.820014477E-1,1.278998137E0,-6.765327603E-2
2.998233768E0,5.221366882E-1,1.253341794E0,-8.842267841E-2
3.000340434E0,4.634936452E-1,1.221576810E0,-1.043051630E-1
3.002447049E0,4.036289155E-1,1.188590169E0,-1.214093715E-1
3.004553664E0,3.437641561E-1,1.151938200E0,-1.372918636E-1
3.006660278E0,2.838993967E-1,1.103069067E0,-1.495091617E-1
3.008766893E0,2.264781147E-1,1.048091292E0,-1.629481763E-1
3.010873559E0,1.727220118E-1,9.955568910E-1,-1.739437431E-1
3.012980174E0,1.201876476E-1,9.271399975E-1,-1.837175786E-1
3.015086789E0,7.620538026E-2,8.684970140E-1,-1.910479665E-1
3.017193403E0,3.588830680E-2,8.037453294E-1,-1.983783394E-1
3.019300018E0,-7.635809598E-4,7.328850031E-1,-2.020435184E-1
3.021406632E0,-2.886336111E-2,6.583595276E-1,-2.044869810E-1
3.023513299E0,-4.963276163E-2,5.850557685E-1,-2.069304436E-1
3.025619862E0,-6.673697382E-2,5.056433082E-1,-2.069304436E-1
3.027726528E0,-7.528908551E-2,4.237874448E-1,-2.057087123E-1
3.029833143E0,-8.139773458E-2,3.394880891E-1,-2.032652497E-1
3.031939757E0,-7.773254067E-2,2.551887631E-1,-2.020435184E-1
3.034046372E0,-7.040216774E-2,1.647807807E-1,-2.008218020E-1
3.036152987E0,-5.451968312E-2,7.315105945E-2,-1.983783394E-1
3.038259653E0,-3.497200832E-2,-1.237001177E-2,-2.008218020E-1
3.040366216E0,-1.420260593E-2,-9.789107740E-2,-1.996000707E-1
3.042472882E0,1.023198478E-2,-1.821904182E-1,-1.947131455E-1
3.044579497E0,3.833176568E-2,-2.652680278E-1,-1.861610413E-1
3.046686112E0,6.765327603E-2,-3.373500705E-1,-1.751654744E-1
3.048792726E0,9.453132749E-2,-4.057669342E-1,-1.653916389E-1
3.050899341E0,1.214093715E-1,-4.668534100E-1,-1.531743407E-1
3.053005955E0,1.470656991E-1,-5.328267813E-1,-1.397353113E-1
3.055112570E0,1.666133702E-1,-5.865828991E-1,-1.287397593E-1
3.057219237E0,1.873827726E-1,-6.330085993E-1,-1.177441850E-1
3.059325851E0,2.044869810E-1,-6.684387922E-1,-1.067486182E-1
3.061432466E0,2.215912044E-1,-6.977602839E-1,-9.575305134E-2
3.063539080E0,2.362519503E-1,-7.185297012E-1,-8.353576064E-2
3.065645747E0,2.545779049E-1,-7.368556261E-1,-7.131846249E-2
3.067752309E0,2.716821134E-1,-7.515164018E-1,-5.910116807E-2
3.069858924E0,2.826776803E-1,-7.564033270E-1,-4.810560122E-2
3.071965539E0,2.961167097E-1,-7.527381182E-1,-3.588830680E-2
3.074072205E0,3.095557392E-1,-7.466294765E-1,-2.611446939E-2
3.076178820E0,3.205513060E-1,-7.331904769E-1,-1.145371422E-2
3.078285434E0,3.327685893E-1,-7.173079848E-1,-4.581485991E-4
3.080392049E0,3.400989771E-1,-6.977602839E-1,1.053741761E-2
3.082498664E0,3.413206935E-1,-6.672170758E-1,2.031125315E-2
3.084605278E0,3.437641561E-1,-6.305651665E-1,2.641990222E-2
3.086711893E0,3.413206935E-1,-5.926915407E-1,3.252854943E-2
3.088818559E0,3.364337683E-1,-5.523744822E-1,3.741546720E-2
3.090925174E0,3.266599476E-1,-5.047270060E-1,4.108065739E-2
3.093031789E0,3.156643808E-1,-4.546361268E-1,4.230238497E-2
3.095138403E0,3.058905303E-1,-4.045451880E-1,4.352411628E-2
3.097245018E0,2.924515009E-1,-3.532325625E-1,4.352411628E-2
3.099351684E0,2.753472924E-1,-2.970330119E-1,4.108065739E-2
3.101458299E0,2.582430840E-1,-2.432768941E-1,3.985892609E-2
3.103564914E0,2.374736816E-1,-1.809686869E-1,3.985892609E-2
3.105671528E0,2.167042792E-1,-1.235474050E-1,3.863719851E-2
3.107778195E0,1.959348768E-1,-6.734783947E-2,3.863719851E-2
3.109884757E0,1.751654744E-1,-1.114828233E-2,3.985892609E-2
3.111991372E0,1.531743407E-1,4.627300799E-2,4.108065739E-2
3.114098039E0,1.311832070E-1,1.012508348E-1,4.352411628E-2
3.116204601E0,1.091920808E-1,1.525634825E-1,4.352411628E-2
3.118311268E0,8.720094711E-2,2.026543915E-1,4.718930274E-2
3.120417882E0,6.643154472E-2,2.515235841E-1,5.085449293E-2
3.122524497E0,4.566214234E-2,2.967275679E-1,5.574141070E-2
3.124631164E0,2.977965772E-2,3.419315517E-1,6.307178736E-2
3.126737778E0,1.023198478E-2,3.846921027E-1,7.162389904E-2
3.128844393E0,-7.635809598E-4,4.250091612E-1,8.017600328E-2
3.130951007E0,-1.664606482E-2,4.616610706E-1,9.117157012E-2
3.133057622E0,-2.764163166E-2,4.970912039E-1,1.009454057E-1
3.135164237E0,-3.863719851E-2,5.288561583E-1,1.143844277E-1
3.137270851E0,-4.963276163E-2,5.618428588E-1,1.253799945E-1
3.139377466E0,-6.185005978E-2,5.850557685E-1,1.412624866E-1
3.141484080E0,-6.795870513E-2,6.131555438E-1,1.571449637E-1
3.143590695E0,-7.528908551E-2,6.314814687E-1,1.754709035E-1
3.145697362E0,-8.261945844E-2,6.510291100E-1,1.925751269E-1
3.147803976E0,-8.628465235E-2,6.644681692E-1,2.121227980E-1
3.149910591E0,-8.994983882E-2,6.779071689E-1,2.316704690E-1
3.152017205E0,-9.605848789E-2,6.827940941E-1,2.524398565E-1
3.154123872E0,-1.009454057E-1,6.889027357E-1,2.719875574E-1
3.156230487E0,-1.046105921E-1,6.864593029E-1,2.939786613E-1
3.158337101E0,-1.058323234E-1,6.827940941E-1,3.135263622E-1
3.160443716E0,-1.058323234E-1,6.717985272E-1,3.342957497E-1
3.162550330E0,-1.119409725E-1,6.656898856E-1,3.513999581E-1
3.164656945E0,-1.131627038E-1,6.522508860E-1,3.672824502E-1
3.166763559E0,-1.180496216E-1,6.339249015E-1,3.819431961E-1
3.168870174E0,-1.217148080E-1,6.155989766E-1,3.941605091E-1
3.170976789E0,-1.229365394E-1,5.972730517E-1,4.039343297E-1
3.173083455E0,-1.278234571E-1,5.716167092E-1,4.161516428E-1
3.175190070E0,-1.302669197E-1,5.422952175E-1,4.247037470E-1
3.177296684E0,-1.327103674E-1,5.154171586E-1,4.332558513E-1
3.179403299E0,-1.302669197E-1,4.885390997E-1,4.381427765E-1
3.181509914E0,-1.302669197E-1,4.592176080E-1,4.418079555E-1
3.183616528E0,-1.266017258E-1,4.262309074E-1,4.454731345E-1
3.185723195E0,-1.229365394E-1,4.005745649E-1,4.466948807E-1
3.187829809E0,-1.143844277E-1,3.639226854E-1,4.454731345E-1
3.189936424E0,-1.033888608E-1,3.333794475E-1,4.430296719E-1
3.192043039E0,-9.361502528E-2,2.979492843E-1,4.418079555E-1
3.194149653E0,-8.384118974E-2,2.649625838E-1,4.369210303E-1
3.196256268E0,-7.162389904E-2,2.319758981E-1,4.332558513E-1
3.198362882E0,-6.307178736E-2,2.050978541E-1,4.271472096E-1
3.200469549E0,-4.963276163E-2,1.745546162E-1,4.210385382E-1
3.202576164E0,-4.108065739E-2,1.464548260E-1,4.149298966E-1
3.204682726E0,-2.886336111E-2,1.220202371E-1,4.063777924E-1
3.206789393E0,-1.908952370E-2,9.514218569E-2,3.978256881E-1
3.208896007E0,-9.315688163E-3,7.070759684E-2,3.892735839E-1
3.211002674E0,-3.207040019E-3,4.627300799E-2,3.794997334E-1
3.213109237E0,6.566796452E-3,2.061668597E-2,3.697259128E-1
3.215215903E0,1.511890348E-2,1.069013379E-3,3.575085998E-1
3.217322518E0,2.000582218E-2,-2.336557768E-2,3.452913165E-1
3.219429132E0,2.489273995E-2,-4.657844082E-2,3.330740333E-1
3.221535747E0,2.733619884E-2,-6.734783947E-2,3.220784664E-1
3.223642362E0,2.611446939E-2,-9.056070447E-2,3.123046160E-1
3.225748976E0,3.100138716E-2,-1.088866442E-1,3.025307953E-1
3.227855591E0,2.611446939E-2,-1.296560466E-1,2.939786613E-1
3.229962257E0,2.244928107E-2,-1.430950761E-1,2.866483033E-1
3.232068872E0,1.634063199E-2,-1.614210159E-1,2.805396616E-1
3.234175487E0,7.788525894E-3,-1.724165827E-1,2.768744528E-1
3.236282101E0,-1.985310577E-3,-1.858556122E-1,2.719875574E-1
3.238388716E0,-1.298087649E-2,-1.992946416E-1,2.683223486E-1
3.240495330E0,-2.275471389E-2,-2.078467458E-1,2.671006322E-1
3.242601997E0,-3.619373962E-2,-2.151771188E-1,2.646571696E-1
3.244708559E0,-4.963276163E-2,-2.225074917E-1,2.671006322E-1
3.246815226E0,-6.062832847E-2,-2.225074917E-1,2.707658112E-1
3.248921841E0,-7.162389904E-2,-2.212857604E-1,2.744309902E-1
3.251028455E0,-7.895427197E-2,-2.200640440E-1,2.793179154E-1
3.253135070E0,-8.750637621E-2,-2.139553875E-1,2.854265571E-1
3.255241684E0,-8.994983882E-2,-2.054032832E-1,2.903134823E-1
3.257348299E0,-9.117157012E-2,-1.980729103E-1,2.952004075E-1
3.259454914E0,-9.239330143E-2,-1.931859851E-1,2.988655865E-1
3.261561580E0,-8.872810751E-2,-1.809686869E-1,3.025307953E-1
3.263668195E0,-8.628465235E-2,-1.711948514E-1,3.074176908E-1
3.265774809E0,-8.139773458E-2,-1.614210159E-1,3.086394370E-1
3.267881424E0,-7.162389904E-2,-1.492037177E-1,3.123046160E-1
3.269988039E0,-6.062832847E-2,-1.345429718E-1,3.135263622E-1
3.272094653E0,-4.963276163E-2,-1.211039424E-1,3.159697950E-1
3.274201268E0,-3.252854943E-2,-1.064431891E-1,3.184132576E-1
3.276307934E0,-1.298087649E-2,-9.056070447E-2,3.184132576E-1
3.278414549E0,6.566796452E-3,-7.834340632E-2,3.184132576E-1
3.280521164E0,2.611446939E-2,-6.612611562E-2,3.184132576E-1
3.282627778E0,4.810560122E-2,-4.902189970E-2,3.171915412E-1
3.284734393E0,6.765327603E-2,-3.558287397E-2,3.159697950E-1
3.286841059E0,8.842267841E-2,-1.970038936E-2,3.135263622E-1
3.288947674E0,1.091920808E-1,-6.261364091E-3,3.123046160E-1
3.291054289E0,1.287397593E-1,7.177661173E-3,3.086394370E-1
3.293160903E0,1.446222365E-1,2.061668597E-2,3.061959743E-1
3.295267518E0,1.617264450E-1,3.283398226E-2,3.013090491E-1
3.297374132E0,1.751654744E-1,4.627300799E-2,2.952004075E-1
3.299480747E0,1.873827726E-1,5.238165334E-2,2.903134823E-1
3.301587414E0,1.996000707E-1,5.971203372E-2,2.829830945E-1
3.303693976E0,2.105956376E-1,7.070759684E-2,2.732092738E-1
3.305800643E0,2.154825479E-1,7.315105945E-2,2.646571696E-1
3.307907257E0,2.228129357E-1,7.559451461E-2,2.573267817E-1
3.310013872E0,2.240346521E-1,7.681624591E-2,2.524398565E-1
3.312120487E0,2.276998460E-1,7.437278330E-2,2.487746775E-1
3.314227101E0,2.264781147E-1,7.192932814E-2,2.463312149E-1
3.316333716E0,2.240346521E-1,6.337722391E-2,2.451094985E-1
3.318440382E0,2.191477418E-1,6.093376130E-2,2.438877672E-1
3.320546997E0,2.093739063E-1,5.482511222E-2,2.463312149E-1
3.322653612E0,2.008218020E-1,4.627300799E-2,2.463312149E-1
3.324760226E0,1.898262352E-1,3.894263133E-2,2.463312149E-1
3.326866841E0,1.812741160E-1,2.550360374E-2,2.438877672E-1
3.328973455E0,1.715002805E-1,1.206457894E-2,2.438877672E-1
3.331080122E0,1.653916389E-1,-5.039634649E-3,2.414443046E-1
3.333186684E0,1.568395346E-1,-2.092211880E-2,2.402225733E-1
3.335293299E0,1.531743407E-1,-3.558287397E-2,2.377791107E-1
3.337399966E0,1.495091617E-1,-5.879573524E-2,2.341139317E-1
3.339506580E0,1.434005052E-1,-8.078686893E-2,2.292270064E-1
3.341613195E0,1.421787739E-1,-1.052214578E-1,2.231183648E-1
3.343719809E0,1.372918636E-1,-1.320995092E-1,2.145662606E-1
3.345826424E0,1.360701323E-1,-1.614210159E-1,2.047924101E-1
3.347933091E0,1.324049383E-1,-1.882990748E-1,1.937968582E-1
3.350039705E0,1.275180280E-1,-2.200640440E-1,1.840230078E-1
3.352146320E0,1.214093715E-1,-2.530507445E-1,1.705839932E-1
3.354252934E0,1.177441850E-1,-2.835939825E-1,1.583666950E-1
3.356359549E0,1.116355360E-1,-3.153589368E-1,1.461493969E-1
3.358466164E0,1.030834317E-1,-3.446804583E-1,1.314886510E-1
3.360572778E0,9.575305134E-2,-3.764454126E-1,1.180496216E-1
3.362679393E0,8.964440972E-2,-4.069886506E-1,1.021671370E-1
3.364786059E0,8.109229803E-2,-4.387536347E-1,8.872810751E-2
3.366892674E0,7.498364896E-2,-4.680751264E-1,7.406735420E-2
3.368999289E0,6.032289565E-2,-4.973966479E-1,6.062832847E-2
3.371105903E0,5.177079141E-2,-5.218312144E-1,4.718930274E-2
3.373212518E0,4.566214234E-2,-5.401571989E-1,3.497200832E-2
3.375319184E0,3.711003438E-2,-5.535961986E-1,2.519817278E-2
3.377425747E0,2.611446939E-2,-5.707004070E-1,1.664606482E-2
3.379532362E0,1.756236330E-2,-5.719221234E-1,8.093958721E-3
3.381639028E0,9.010255337E-3,-5.768090487E-1,7.635809598E-4
3.383745643E0,-3.207040019E-3,-5.731438994E-1,-2.901607659E-3
3.385852257E0,-1.175914705E-2,-5.645917654E-1,-7.788525894E-3
3.387958872E0,-2.275471389E-2,-5.560396910E-1,-1.145371422E-2
3.390065487E0,-3.497200832E-2,-5.377137065E-1,-1.511890348E-2
3.392172153E0,-4.963276163E-2,-5.206094980E-1,-1.878409274E-2
3.394278768E0,-6.918043643E-2,-5.010618567E-1,-2.244928107E-2
3.396385330E0,-9.361502528E-2,-4.851793647E-1,-2.611446939E-2
3.398491997E0,-1.168278903E-1,-4.595230222E-1,-3.100138716E-2
3.400598612E0,-1.461493969E-1,-4.350884259E-1,-3.833176568E-2
3.402705226E0,-1.791360974E-1,-4.106538594E-1,-4.566214234E-2
3.404811841E0,-2.170097083E-1,-3.874409795E-1,-5.543597788E-2
3.406918455E0,-2.597702444E-1,-3.630063832E-1,-6.765327603E-2
3.409025122E0,-3.074176908E-1,-3.422369957E-1,-7.987056673E-2
3.411131737E0,-3.575085998E-1,-3.165806830E-1,-9.330959618E-2
3.413238351E0,-4.124864340E-1,-2.994764447E-1,-1.091920808E-1
3.415344966E0,-4.711294472E-1,-2.750418782E-1,-1.275180280E-1
3.417451580E0,-5.322159529E-1,-2.542724609E-1,-1.470656991E-1
3.419558195E0,-5.945241451E-1,-2.347247899E-1,-1.690568328E-1
3.421664862E0,-6.604975462E-1,-2.151771188E-1,-1.898262352E-1
3.423771476E0,-7.276926637E-1,-1.980729103E-1,-2.118173689E-1
3.425878039E0,-7.900008559E-1,-1.797469556E-1,-2.338084877E-1
3.427984705E0,-8.523091078E-1,-1.614210159E-1,-2.533561587E-1
3.430091320E0,-9.133955836E-1,-1.406516135E-1,-2.704603672E-1
3.432197934E0,-9.659299254E-1,-1.149952933E-1,-2.863428593E-1
3.434304549E0,-1.014799118E0,-8.689551800E-2,-2.961167097E-1
3.436411164E0,-1.061224818E0,-5.513054505E-2,-3.022253513E-1
3.438517778E0,-1.100320220E0,-2.458730713E-2,-3.058905303E-1
3.440624445E0,-1.125976562E0,1.328630932E-2,-3.022253513E-1
3.442731059E0,-1.149189353E0,4.382954910E-2,-2.973384261E-1
3.444837674E0,-1.165071845E0,7.803797722E-2,-2.887863219E-1
3.446944289E0,-1.166293621E0,1.061377525E-1,-2.753472924E-1
3.449050903E0,-1.163850069E0,1.342375278E-1,-2.594648004E-1
3.451157518E0,-1.151632786E0,1.623373181E-1,-2.374736816E-1
3.453264132E0,-1.132085204E0,1.867718995E-1,-2.142608166E-1
3.455370747E0,-1.102763653E0,2.087630332E-1,-1.849393100E-1
3.457477414E0,-1.063668251E0,2.295324355E-1,-1.519526094E-1
3.459584028E0,-1.017242551E0,2.441931963E-1,-1.177441850E-1
3.461690643E0,-9.610430002E-1,2.527453005E-1,-8.353576064E-2
3.463797257E0,-8.999565244E-1,2.564104795E-1,-4.688387364E-2
3.465903872E0,-8.352048993E-1,2.600756884E-1,-1.389717404E-2
3.468010487E0,-7.643445730E-1,2.576322258E-1,2.031125315E-2
3.470117101E0,-6.922625303E-1,2.490801066E-1,5.329795182E-2
3.472223768E0,-6.152935624E-1,2.319758981E-1,8.506292105E-2
3.474330382E0,-5.395463109E-1,2.234237939E-1,1.156061590E-1
3.476436997E0,-4.601338804E-1,2.099847645E-1,1.449276656E-1
3.478543612E0,-3.831649423E-1,1.867718995E-1,1.754709035E-1
3.480650226E0,-3.074176908E-1,1.672242284E-1,2.072358727E-1
3.482756841E0,-2.328922004E-1,1.427896470E-1,2.365573794E-1
3.484863507E0,-1.608101577E-1,1.232419685E-1,2.671006322E-1
3.486970122E0,-9.239330143E-2,9.758564830E-2,2.952004075E-1
3.489076737E0,-2.641990222E-2,7.559451461E-2,3.208567202E-1
3.491183351E0,3.100138716E-2,4.871646687E-2,3.465130329E-1
3.493289966E0,8.720094711E-2,2.061668597E-2,3.709476292E-1
3.495396580E0,1.324049383E-1,-7.483093534E-3,3.929387629E-1
3.497503195E0,1.788306683E-1,-3.191768378E-2,4.137081802E-1
3.499609862E0,2.154825479E-1,-6.368265301E-2,4.356993139E-1
3.501716476E0,2.533561587E-1,-8.689551800E-2,4.540252388E-1
3.503823091E0,2.838993967E-1,-1.149952933E-1,4.723511934E-1
3.505929705E0,3.095557392E-1,-1.406516135E-1,4.882336855E-1
3.508036320E0,3.339903057E-1,-1.663079411E-1,5.016726851E-1
3.510142934E0,3.547597229E-1,-1.944077164E-1,5.126682520E-1
3.512249549E0,3.706422150E-1,-2.261726856E-1,5.224421024E-1
3.514356164E0,3.840812445E-1,-2.530507445E-1,5.285507441E-1
3.516462830E0,3.950767815E-1,-2.872591615E-1,5.346593857E-1
3.518569445E0,4.024071693E-1,-3.178023994E-1,5.395463109E-1
3.520676059E0,4.060723484E-1,-3.471239209E-1,5.407680273E-1
3.522782674E0,4.060723484E-1,-3.788888752E-1,5.419898033E-1
3.524889289E0,4.036289155E-1,-4.082103968E-1,5.432115197E-1
3.526995903E0,4.036289155E-1,-4.277580678E-1,5.419898033E-1
3.529102518E0,4.024071693E-1,-4.558578432E-1,5.407680273E-1
3.531209132E0,3.987419903E-1,-4.692968726E-1,5.383245945E-1
3.533315799E0,3.950767815E-1,-4.912880063E-1,5.322159529E-1
3.535422362E0,3.914116025E-1,-5.047270060E-1,5.261073112E-1
3.537529028E0,3.853029609E-1,-5.120574236E-1,5.151117444E-1
3.539635643E0,3.804160357E-1,-5.181660652E-1,5.028944016E-1
3.541742257E0,3.730856776E-1,-5.230529904E-1,4.894554019E-1
3.543848872E0,3.657552898E-1,-5.181660652E-1,4.735729098E-1
3.545955487E0,3.596466482E-1,-5.132791400E-1,4.552469850E-1
3.548062153E0,3.523162603E-1,-5.096139312E-1,4.369210303E-1
3.550168768E0,3.449858725E-1,-5.010618567E-1,4.149298966E-1
3.552275382E0,3.376555145E-1,-4.900662601E-1,3.917170465E-1
3.554381997E0,3.278816640E-1,-4.741837978E-1,3.660607338E-1
3.556488612E0,3.181078434E-1,-4.607447684E-1,3.391826749E-1
3.558595278E0,3.083339930E-1,-4.448622763E-1,3.110828996E-1
3.560701841E0,2.961167097E-1,-4.240928590E-1,2.829830945E-1
3.562808507E0,2.863428593E-1,-4.033234715E-1,2.561050653E-1
3.564915122E0,2.741255760E-1,-3.727802336E-1,2.267835438E-1
3.567021737E0,2.619082630E-1,-3.434587121E-1,1.999054998E-1
3.569128351E0,2.509126961E-1,-3.116937578E-1,1.730274558E-1
3.571234966E0,2.362519503E-1,-2.811505198E-1,1.473711282E-1
3.573341632E0,2.289215773E-1,-2.457203567E-1,1.217148080E-1
3.575448195E0,2.215912044E-1,-2.078467458E-1,9.728021920E-2
3.577554862E0,2.118173689E-1,-1.687513888E-1,7.040216774E-2
3.579661424E0,2.069304436E-1,-1.259908676E-1,4.596757516E-2
3.581768091E0,1.996000707E-1,-8.811724186E-2,2.153298259E-2
3.583874705E0,1.959348768E-1,-4.780016840E-2,-2.901607659E-3
3.585981320E0,1.910479665E-1,-3.817904973E-3,-2.489273995E-2
3.588087934E0,1.898262352E-1,3.772090003E-2,-4.688387364E-2
3.590194601E0,1.849393100E-1,7.559451461E-2,-6.643154472E-2
3.592301164E0,1.849393100E-1,1.183550507E-1,-8.475748450E-2
3.594407778E0,1.837175786E-1,1.635590494E-1,-9.941824526E-2
3.596514445E0,1.812741160E-1,2.014326602E-1,-1.140789986E-1
3.598621059E0,1.824958473E-1,2.441931963E-1,-1.262962967E-1
3.600727674E0,1.849393100E-1,2.832885385E-1,-1.360701323E-1
3.602834289E0,1.861610413E-1,3.223838806E-1,-1.434005052E-1
3.604940903E0,1.898262352E-1,3.602575064E-1,-1.507308781E-1
3.607047518E0,1.910479665E-1,3.944659233E-1,-1.543960720E-1
3.609154132E0,1.959348768E-1,4.298960865E-1,-1.580612659E-1
3.611260799E0,1.996000707E-1,4.653262496E-1,-1.592829973E-1
3.613367414E0,2.032652497E-1,4.946477413E-1,-1.605047137E-1
3.615474028E0,2.069304436E-1,5.264127254E-1,-1.580612659E-1
3.617580643E0,2.105956376E-1,5.545125008E-1,-1.568395346E-1
3.619687309E0,2.154825479E-1,5.813905597E-1,-1.519526094E-1
3.621793872E0,2.167042792E-1,6.058251262E-1,-1.458439678E-1
3.623900487E0,2.215912044E-1,6.229293346E-1,-1.372918636E-1
3.626007153E0,2.240346521E-1,6.449204683E-1,-1.299614757E-1
3.628113768E0,2.264781147E-1,6.632464528E-1,-1.214093715E-1
3.630220382E0,2.276998460E-1,6.791289449E-1,-1.116355360E-1
3.632326997E0,2.313650399E-1,6.986765862E-1,-1.018617004E-1
3.634433612E0,2.325867712E-1,7.084504366E-1,-9.086613357E-2
3.636540278E0,2.325867712E-1,7.231112123E-1,-8.109229803E-2
3.638646841E0,2.313650399E-1,7.267763615E-1,-7.131846249E-2
3.640753507E0,2.313650399E-1,7.328850031E-1,-6.398808211E-2
3.642860122E0,2.313650399E-1,7.365502119E-1,-5.665770918E-2
3.644966737E0,2.289215773E-1,7.365502119E-1,-4.932733253E-2
3.647073351E0,2.276998460E-1,7.341067195E-1,-4.199695215E-2
3.649179966E0,2.240346521E-1,7.353284955E-1,-3.588830680E-2
3.651286580E0,2.215912044E-1,7.328850031E-1,-2.977965772E-2
3.653393195E0,2.191477418E-1,7.267763615E-1,-2.611446939E-2
3.655499862E0,2.154825479E-1,7.206677198E-1,-2.122755162E-2
3.657606476E0,2.130390853E-1,7.108938694E-1,-1.756236330E-2
3.659713091E0,2.105956376E-1,6.986765862E-1,-1.511890348E-2
3.661819705E0,2.057087123E-1,6.913462281E-1,-1.389717404E-2
3.663926320E0,2.020435184E-1,6.803506613E-1,-1.389717404E-2
3.666032934E0,1.934914142E-1,6.730202436E-1,-1.389717404E-2
3.668139601E0,1.898262352E-1,6.632464528E-1,-1.389717404E-2
3.670246216E0,1.849393100E-1,6.534726024E-1,-1.756236330E-2
3.672352830E0,1.751654744E-1,6.400335431E-1,-2.000582218E-2
3.674459445E0,1.678351015E-1,6.278162599E-1,-2.367101051E-2
3.676566059E0,1.580612659E-1,6.192641854E-1,-2.733619884E-2
3.678672674E0,1.470656991E-1,6.058251262E-1,-3.100138716E-2
3.680779289E0,1.372918636E-1,5.960513353E-1,-3.588830680E-2
3.682885903E0,1.262962967E-1,5.765036345E-1,-4.077522457E-2
3.684992570E0,1.140789986E-1,5.606211424E-1,-4.444041103E-2
3.687099184E0,1.043051630E-1,5.435169339E-1,-5.177079141E-2
3.689205799E0,9.086613357E-2,5.203040838E-1,-5.543597788E-2
3.691312414E0,7.987056673E-2,5.007563829E-1,-6.032289565E-2
3.693419028E0,6.643154472E-2,4.775435328E-1,-6.520981342E-2
3.695525643E0,5.299251899E-2,4.579958618E-1,-7.009673119E-2
3.697632257E0,4.077522457E-2,4.372264743E-1,-7.620538026E-2
3.699738872E0,2.489273995E-2,4.176788032E-1,-7.864884287E-2
3.701845487E0,1.267544460E-2,3.944659233E-1,-8.353576064E-2
3.703952153E0,-7.635809598E-4,3.749182522E-1,-8.720094711E-2
3.706058768E0,-1.175914705E-2,3.517054021E-1,-9.208786488E-2
3.708165382E0,-2.641990222E-2,3.309359848E-1,-9.697478265E-2
3.710271997E0,-3.863719851E-2,3.126100600E-1,-1.006399691E-1
3.712378612E0,-5.085449293E-2,2.869537175E-1,-1.043051630E-1
3.714485226E0,-5.940660089E-2,2.661843300E-1,-1.091920808E-1
3.716591893E0,-7.284562290E-2,2.454149276E-1,-1.116355360E-1
3.718698455E0,-8.139773458E-2,2.258672565E-1,-1.153007299E-1
3.720805122E0,-8.750637621E-2,2.063195854E-1,-1.214093715E-1
3.722911737E0,-9.483675659E-2,1.831067204E-1,-1.250745654E-1
3.725018351E0,-9.972367436E-2,1.611155868E-1,-1.275180280E-1
3.727124966E0,-1.058323234E-1,1.403461844E-1,-1.324049383E-1
3.729231580E0,-1.082757786E-1,1.195767820E-1,-1.372918636E-1
3.731338195E0,-1.119409725E-1,1.012508348E-1,-1.421787739E-1
3.733444809E0,-1.168278903E-1,8.536835015E-2,-1.470656991E-1
3.735551476E0,-1.180496216E-1,6.582067907E-2,-1.543960720E-1
3.737658091E0,-1.192713454E-1,4.871646687E-2,-1.605047137E-1
3.739764705E0,-1.229365394E-1,2.916879393E-2,-1.653916389E-1
3.741871320E0,-1.229365394E-1,9.621120058E-3,-1.715002805E-1
3.743977934E0,-1.229365394E-1,-5.039634649E-3,-1.763872057E-1
3.746084549E0,-1.241582632E-1,-1.847865991E-2,-1.824958473E-1
3.748191164E0,-1.266017258E-1,-3.191768378E-2,-1.861610413E-1
3.750297830E0,-1.253799945E-1,-4.291325063E-2,-1.947131455E-1
3.752404445E0,-1.266017258E-1,-5.390881747E-2,-1.996000707E-1
3.754511059E0,-1.302669197E-1,-5.879573524E-2,-2.032652497E-1
3.756617674E0,-1.314886510E-1,-7.101303339E-2,-2.105956376E-1
3.758724289E0,-1.363755614E-1,-7.589995116E-2,-2.154825479E-1
3.760830903E0,-1.412624866E-1,-8.445205539E-2,-2.203694731E-1
3.762937518E0,-1.449276656E-1,-8.933897316E-2,-2.264781147E-1
3.765044132E0,-1.485928595E-1,-9.666935354E-2,-2.313650399E-1
3.767150747E0,-1.498145908E-1,-1.039997265E-1,-2.350302190E-1
3.769257414E0,-1.547015011E-1,-1.101083755E-1,-2.362519503E-1
3.771364028E0,-1.595884264E-1,-1.125518382E-1,-2.399171442E-1
3.773470643E0,-1.583666950E-1,-1.101083755E-1,-2.411388755E-1
3.775577257E0,-1.632536054E-1,-1.088866442E-1,-2.435823381E-1
3.777683872E0,-1.644753367E-1,-1.064431891E-1,-2.435823381E-1
3.779790487E0,-1.632536054E-1,-1.027780026E-1,-2.448040545E-1
3.781897101E0,-1.608101577E-1,-9.666935354E-2,-2.472475171E-1
3.784003768E0,-1.632536054E-1,-8.811724186E-2,-2.484692484E-1
3.786110382E0,-1.608101577E-1,-8.078686893E-2,-2.484692484E-1
3.788216997E0,-1.608101577E-1,-6.979130208E-2,-2.533561587E-1
3.790323612E0,-1.608101577E-1,-6.123919412E-2,-2.557996213E-1
3.792430226E0,-1.583666950E-1,-5.635227636E-2,-2.545779049E-1
3.794536841E0,-1.547015011E-1,-5.024362728E-2,-2.545779049E-1
3.796643455E0,-1.510363221E-1,-4.413498193E-2,-2.545779049E-1
3.798750122E0,-1.437059343E-1,-4.413498193E-2,-2.533561587E-1
3.800856737E0,-1.363755614E-1,-3.680460155E-2,-2.496909797E-1
3.802963351E0,-1.253799945E-1,-3.191768378E-2,-2.448040545E-1
3.805069966E0,-1.156061590E-1,-2.703076601E-2,-2.374736816E-1
3.807176580E0,-1.033888608E-1,-1.603520103E-2,-2.289215773E-1
3.809283195E0,-8.872810751E-2,-3.817904973E-3,-2.191477418E-1
3.811389809E0,-7.162389904E-2,7.177661173E-3,-2.081521749E-1
3.813496424E0,-5.574141070E-2,9.621120058E-3,-1.983783394E-1
3.815603091E0,-3.130681813E-2,1.817322709E-2,-1.959348768E-1
3.817709705E0,-4.428769462E-3,2.672533318E-2,-1.971566081E-1
3.819816320E0,1.511890348E-2,4.627300799E-2,-1.910479665E-1
3.821922934E0,3.466657549E-2,7.315105945E-2,-1.702785641E-1
3.824029549E0,4.688387364E-2,9.269873053E-2,-1.409570426E-1
3.826136164E0,5.910116807E-2,1.110246703E-1,-1.067486182E-1
3.828242778E0,7.742711157E-2,1.244636998E-1,-7.498364896E-2
3.830349393E0,8.964440972E-2,1.293506175E-1,-4.321868345E-2
3.832456059E0,1.030834317E-1,1.366809905E-1,-1.267544460E-2
3.834562674E0,1.165224537E-1,1.379027218E-1,1.786779426E-2
3.836669289E0,1.262962967E-1,1.464548260E-1,4.841103405E-2
3.838775903E0,1.324049383E-1,1.488982886E-1,8.017600328E-2
3.840882518E0,1.409570426E-1,1.623373181E-1,1.082757786E-1
3.842989132E0,1.470656991E-1,1.708894223E-1,1.339320987E-1
3.845095747E0,1.495091617E-1,1.769980639E-1,1.608101577E-1
3.847202362E0,1.507308781E-1,1.916588247E-1,1.864664704E-1
3.849309028E0,1.519526094E-1,2.002109289E-1,2.047924101E-1
3.851415643E0,1.458439678E-1,2.063195854E-1,2.255618125E-1
3.853522257E0,1.421787739E-1,2.173151523E-1,2.390008420E-1
3.855628872E0,1.372918636E-1,2.234237939E-1,2.499964088E-1
3.857735487E0,1.336266696E-1,2.246455252E-1,2.573267817E-1
3.859842101E0,1.238528341E-1,2.270889878E-1,2.646571696E-1
3.861948716E0,1.140789986E-1,2.356410921E-1,2.695440948E-1
3.864055330E0,1.030834317E-1,2.380845547E-1,2.780961990E-1
3.866161945E0,9.086613357E-2,2.405280024E-1,2.842048407E-1
3.868268612E0,7.987056673E-2,2.380845547E-1,2.915352285E-1
3.870375226E0,6.643154472E-2,2.307541668E-1,2.976438701E-1
3.872481841E0,5.421425030E-2,2.222020626E-1,3.025307953E-1
3.874588455E0,4.444041103E-2,2.099847645E-1,3.086394370E-1
3.876695070E0,3.588830680E-2,1.977674663E-1,3.147480786E-1
3.878801684E0,2.733619884E-2,1.867718995E-1,3.220784664E-1
3.880908351E0,2.122755162E-2,1.708894223E-1,3.306305707E-1
3.883014966E0,1.756236330E-2,1.513417512E-1,3.367392123E-1
3.885121580E0,1.389717404E-2,1.366809905E-1,3.428478539E-1
3.887228195E0,1.389717404E-2,1.183550507E-1,3.452913165E-1
3.889334809E0,1.878409274E-2,9.758564830E-2,3.501782417E-1
3.891441424E0,2.611446939E-2,8.292489499E-2,3.550651670E-1
3.893548091E0,3.344484791E-2,6.337722391E-2,3.575085998E-1
3.895654705E0,4.199695215E-2,4.871646687E-2,3.599520624E-1
3.897761320E0,5.665770918E-2,3.772090003E-2,3.623955250E-1
3.899867934E0,7.009673119E-2,2.428187430E-2,3.697259128E-1
3.901974549E0,8.109229803E-2,1.695149764E-2,3.746128380E-1
3.904081164E0,9.330959618E-2,9.621120058E-3,3.856084049E-1
3.906187778E0,1.079703495E-1,3.512472380E-3,3.966039717E-1
3.908294393E0,1.226311028E-1,2.290742937E-3,4.088212550E-1
3.910401007E0,1.372918636E-1,-2.596175298E-3,4.234820008E-1
3.912507622E0,1.507308781E-1,-6.261364091E-3,4.369210303E-1
3.914614237E0,1.580612659E-1,-1.359174121E-2,4.515817761E-1
3.916720903E0,1.727220118E-1,-1.237001177E-2,4.674642682E-1
3.918827518E0,1.849393100E-1,-1.359174121E-2,4.833467603E-1
3.920934132E0,1.959348768E-1,-1.114828233E-2,5.004509687E-1
3.923040747E0,2.081521749E-1,-7.483093534E-3,5.151117444E-1
3.925147362E0,2.191477418E-1,-1.374445739E-3,5.309942365E-1
3.927253976E0,2.301433086E-1,3.512472380E-3,5.456549525E-1
3.929360591E0,2.399171442E-1,9.621120058E-3,5.590940118E-1
3.931467257E0,2.460257858E-1,1.328630932E-2,5.688678026E-1
3.933573872E0,2.509126961E-1,2.306014486E-2,5.774199367E-1
3.935680487E0,2.521344423E-1,3.039052337E-2,5.823068619E-1
3.937787101E0,2.496909797E-1,3.039052337E-2,5.847502947E-1
3.939893716E0,2.423606068E-1,3.161225095E-2,5.823068619E-1
3.942000330E0,2.301433086E-1,2.794706449E-2,5.737547278E-1
3.944106945E0,2.154825479E-1,1.450803876E-2,5.615374446E-1
3.946213559E0,1.934914142E-1,-2.596175298E-3,5.444332361E-1
3.948320226E0,1.690568328E-1,-2.580903657E-2,5.199986696E-1
3.950426841E0,1.336266696E-1,-5.879573524E-2,4.894554019E-1
3.952533455E0,9.941824526E-2,-9.911280870E-2,4.540252388E-1
3.954640070E0,5.543597788E-2,-1.406516135E-1,4.137081802E-1
3.956746684E0,6.566796452E-3,-1.919642538E-1,3.672824502E-1
3.958853299E0,-4.596757516E-2,-2.432768941E-1,3.147480786E-1
3.960959914E0,-1.009454057E-1,-2.982547283E-1,2.597702444E-1
3.963066528E0,-1.571449637E-1,-3.581194878E-1,2.011272311E-1
3.965173195E0,-2.157879770E-1,-4.192059636E-1,1.437059343E-1
3.967279809E0,-2.732092738E-1,-4.766272306E-1,8.750637621E-2
3.969386424E0,-3.245218992E-1,-5.364919901E-1,3.252854943E-2
3.971493039E0,-3.685041666E-1,-5.865828991E-1,-1.389717404E-2
3.973599653E0,-4.075995386E-1,-6.305651665E-1,-5.665770918E-2
3.975706268E0,-4.344775677E-1,-6.672170758E-1,-8.964440972E-2
3.977812882E0,-4.503600597E-1,-7.002037764E-1,-1.165224537E-1
3.979919497E0,-4.564687014E-1,-7.209731340E-1,-1.348484010E-1
3.982026112E0,-4.552469850E-1,-7.392991185E-1,-1.434005052E-1
3.984132726E0,-4.405862093E-1,-7.429642677E-1,-1.470656991E-1
3.986239393E0,-4.173733592E-1,-7.380773425E-1,-1.421787739E-1
3.988346007E0,-3.856084049E-1,-7.270817757E-1,-1.275180280E-1
3.990452622E0,-3.404043913E-1,-7.026472092E-1,-1.067486182E-1
3.992559237E0,-2.878700197E-1,-6.684387922E-1,-7.864884287E-2
3.994665851E0,-2.255618125E-1,-6.256782413E-1,-4.444041103E-2
3.996772518E0,-1.547015011E-1,-5.719221234E-1,-6.566796452E-3
3.998879132E0,-7.651081681E-2,-5.206094980E-1,3.619373962E-2
4.000985747E0,6.566796452E-3,-4.558578432E-1,8.261945844E-2
4.003092362E0,9.208786488E-2,-3.886627257E-1,1.314886510E-1
4.005198976E0,1.873827726E-1,-3.068068326E-1,1.779143661E-1
4.007305591E0,2.790125012E-1,-2.335030586E-1,2.255618125E-1
4.009412205E0,3.743073940E-1,-1.516471803E-1,2.732092738E-1
4.011518820E0,4.696022868E-1,-6.979130208E-2,3.184132576E-1
4.013625434E0,5.539016128E-1,8.399390616E-3,3.611738086E-1
4.015732049E0,6.345357895E-1,8.903354406E-2,4.002691507E-1
4.017838716E0,7.053961158E-1,1.623373181E-1,4.344775677E-1
4.019945330E0,7.640390992E-1,2.331976295E-1,4.637990892E-1
4.022051945E0,8.080213666E-1,2.906189263E-1,4.882336855E-1
4.024158559E0,8.385646343E-1,3.419315517E-1,5.077813268E-1
4.026265174E0,8.568905592E-1,3.822486401E-1,5.199986696E-1
4.028371841E0,8.629992008E-1,4.189005196E-1,5.273290277E-1
4.030478455E0,8.544471264E-1,4.433351159E-1,5.322159529E-1
4.032585070E0,8.361211419E-1,4.665479660E-1,5.309942365E-1
4.034691684E0,8.067996502E-1,4.885390997E-1,5.261073112E-1
4.036798299E0,7.738129497E-1,5.031998754E-1,5.163334608E-1
4.038904914E0,7.286089659E-1,5.117519498E-1,5.053378940E-1
4.041011528E0,6.785180569E-1,5.264127254E-1,4.857902229E-1
4.043118143E0,6.235402226E-1,5.312996507E-1,4.662425518E-1
4.045224757E0,5.600103140E-1,5.361865759E-1,4.405862093E-1
4.047331372E0,4.952586293E-1,5.337430835E-1,4.088212550E-1
4.049438039E0,4.207331240E-1,5.227475166E-1,3.782780170E-1
4.051544653E0,3.449858725E-1,5.129737258E-1,3.428478539E-1
4.053651268E0,2.692386508E-1,4.922043085E-1,3.061959743E-1
4.055757882E0,1.922696829E-1,4.714348912E-1,2.671006322E-1
4.057864497E0,1.201876476E-1,4.396699369E-1,2.280052751E-1
4.059971112E0,4.199695215E-2,4.042397738E-1,1.876882017E-1
4.062077778E0,-3.130681813E-2,3.590357602E-1,1.461493969E-1
4.064184393E0,-9.972367436E-2,3.113883138E-1,1.046105921E-1
4.066291007E0,-1.656970680E-1,2.625191510E-1,6.429351866E-2
4.068397622E0,-2.255618125E-1,2.099847645E-1,2.641990222E-2
4.070504237E0,-2.805396616E-1,1.501200199E-1,-1.145371422E-2
4.072610851E0,-3.306305707E-1,9.025526792E-2,-4.688387364E-2
4.074717466E0,-3.721693754E-1,4.016435891E-2,-7.987056673E-2
4.076824080E0,-4.100429714E-1,-1.725693047E-2,-1.091920808E-1
4.078930747E0,-4.393644929E-1,-7.467821985E-2,-1.348484010E-1
4.081037362E0,-4.613556266E-1,-1.235474050E-1,-1.580612659E-1
4.083143976E0,-4.772381186E-1,-1.711948514E-1,-1.788306683E-1
4.085250591E0,-4.833467603E-1,-2.176205814E-1,-1.971566081E-1
4.087357205E0,-4.833467603E-1,-2.628245652E-1,-2.118173689E-1
4.089463820E0,-4.796815813E-1,-2.945895493E-1,-2.228129357E-1
4.091570434E0,-4.674642682E-1,-3.214675784E-1,-2.338084877E-1
4.093677049E0,-4.515817761E-1,-3.471239209E-1,-2.386954129E-1
4.095783716E0,-4.320341051E-1,-3.593412042E-1,-2.423606068E-1
4.097890330E0,-4.149298966E-1,-3.715584874E-1,-2.423606068E-1
4.099996945E0,-3.929387629E-1,-3.752236962E-1,-2.386954129E-1
4.102103559E0,-3.733910918E-1,-3.801106215E-1,-2.350302190E-1
4.104210174E0,-3.477347791E-1,-3.776671588E-1,-2.276998460E-1
4.106316789E0,-3.257436454E-1,-3.740019500E-1,-2.179260105E-1
4.108423403E0,-3.037525117E-1,-3.654498458E-1,-2.081521749E-1
4.110530018E0,-2.768744528E-1,-3.520108163E-1,-1.922696829E-1
4.112636684E0,-2.561050653E-1,-3.361283541E-1,-1.751654744E-1
4.114743247E0,-2.341139317E-1,-3.153589368E-1,-1.592829973E-1
4.116849862E0,-2.109010667E-1,-2.872591615E-1,-1.397353113E-1
4.118956528E0,-1.925751269E-1,-2.518289983E-1,-1.189659163E-1
4.121063143E0,-1.669187993E-1,-2.163988501E-1,-9.819651395E-2
4.123169757E0,-1.522580534E-1,-1.785252392E-1,-7.498364896E-2
4.125276372E0,-1.388190240E-1,-1.382081509E-1,-5.299251899E-2
4.127382987E0,-1.253799945E-1,-9.178243577E-2,-3.100138716E-2
4.129489601E0,-1.180496216E-1,-4.902189970E-2,-1.023198478E-2
4.131596216E0,-1.119409725E-1,2.290742937E-3,1.053741761E-2
4.133702882E0,-1.119409725E-1,5.482511222E-2,3.130681813E-2
4.135809497E0,-1.143844277E-1,1.000291109E-1,4.841103405E-2
4.137916112E0,-1.217148080E-1,1.537852138E-1,6.551524997E-2
4.140022726E0,-1.314886510E-1,1.977674663E-1,8.139773458E-2
4.142129341E0,-1.461493969E-1,2.441931963E-1,9.728021920E-2
4.144235955E0,-1.644753367E-1,2.881754637E-1,1.119409725E-1
4.146342570E0,-1.815795600E-1,3.309359848E-1,1.241582632E-1
4.148449237E0,-1.999054998E-1,3.724747896E-1,1.339320987E-1
4.150555851E0,-2.194531709E-1,4.042397738E-1,1.449276656E-1
4.152662414E0,-2.402225733E-1,4.384481907E-1,1.534797698E-1
4.154769080E0,-2.622137070E-1,4.665479660E-1,1.608101577E-1
4.156875695E0,-2.744309902E-1,4.983129501E-1,1.644753367E-1
4.158982309E0,-2.903134823E-1,5.239692926E-1,1.693622619E-1
