"Time (s)","Linear Acceleration x (m/s^2)","Linear Acceleration y (m/s^2)","Linear Acceleration z (m/s^2)"
1.153934100E-2,0.000000000E0,0.000000000E0,0.000000000E0
1.653934100E-2,4.467940331E-2,1.407378912E-2,1.511745453E-1
2.153934100E-2,1.346457005E-1,1.270055175E-1,3.275327682E-1
2.653934100E-2,2.858409882E-1,2.765644789E-1,5.687103271E-1
3.153934100E-2,4.523921013E-1,4.481236935E-1,7.181091309E-1
3.653934100E-2,5.479679108E-1,6.023919582E-1,7.842922211E-1
4.153934100E-2,5.438487530E-1,7.038750648E-1,8.292064667E-1
4.653934100E-2,4.834053516E-1,7.586567402E-1,8.392419815E-1
5.153934100E-2,4.182612896E-1,7.855216265E-1,7.207784653E-1
5.653934100E-2,3.471574783E-1,7.767314911E-1,4.764728546E-1
6.153934100E-2,2.510046959E-1,7.615151405E-1,1.179962158E-1
6.653934100E-2,6.491875648E-2,6.864392757E-1,-2.054195404E-1
7.153934100E-2,-1.010622978E-1,6.039911509E-1,-5.642175674E-1
7.653934100E-2,-2.263278961E-1,5.301525593E-1,-9.631090164E-1
8.153934100E-2,-3.385119438E-1,4.522224665E-1,-1.241710663E0
8.653934100E-2,-4.359323978E-1,3.687716722E-1,-1.419535637E0
9.153934100E-2,-5.196812153E-1,2.861237526E-1,-1.502852440E0
9.653934100E-2,-5.537135601E-1,1.541363001E-1,-1.534724236E0
1.015393410E-1,-5.961077213E-1,1.081657410E-2,-1.604015350E0
1.065393410E-1,-6.261408329E-1,-1.265082359E-1,-1.641138077E0
1.115393410E-1,-6.606266499E-1,-2.462590933E-1,-1.648161888E0
1.165393410E-1,-6.426019669E-1,-3.472638130E-1,-1.602320194E0
1.215393410E-1,-6.282081604E-1,-3.931262493E-1,-1.473165035E0
1.265393410E-1,-5.683972836E-1,-3.955533504E-1,-1.335779190E0
1.315393410E-1,-4.982731342E-1,-3.787919283E-1,-1.240187645E0
1.365393410E-1,-4.371254444E-1,-3.096215725E-1,-1.041525841E0
1.415393410E-1,-3.869893551E-1,-2.304461002E-1,-7.630414963E-1
1.465393410E-1,-2.720837593E-1,-1.676335335E-1,-4.824705124E-1
1.515393410E-1,-1.409149170E-1,-1.084028482E-1,-1.401100159E-1
1.565393410E-1,-3.352451324E-2,-6.866931915E-2,9.938430786E-2
1.615393410E-1,-5.170083046E-2,-1.315701008E-2,4.152097702E-1
1.665393410E-1,-5.368947983E-2,3.183305264E-2,5.711336136E-1
1.715393410E-1,-6.216835976E-2,2.297651768E-2,6.850137711E-1
1.765393410E-1,-3.569769859E-2,-1.943886280E-2,7.296266556E-1
1.815393410E-1,-9.398221970E-3,-9.292322397E-2,7.162389755E-1
1.865393410E-1,-1.324176788E-3,-1.687088609E-1,7.139549255E-1
1.915393410E-1,-4.386425018E-3,-2.008383870E-1,6.814584732E-1
1.965393410E-1,-1.532316208E-3,-2.241657376E-1,6.455516815E-1
2.015393410E-1,-2.075552940E-2,-2.164604664E-1,5.871448517E-1
2.065393410E-1,-8.951616287E-2,-1.901586652E-1,5.407447815E-1
2.115393410E-1,-1.553757191E-1,-1.279245615E-1,4.163904190E-1
2.165393410E-1,-2.023510933E-1,-4.265326262E-2,3.266811371E-1
2.215393410E-1,-2.079546452E-1,-1.642411947E-2,2.269763947E-1
2.265393410E-1,-1.881244183E-1,-4.432821274E-2,1.623783112E-1
2.315393410E-1,-1.638309956E-1,-7.941120863E-2,1.785383224E-1
2.365393410E-1,-1.374750137E-1,-1.163405180E-1,2.292366028E-1
2.415393410E-1,-7.733798027E-2,-1.394673586E-1,2.337255478E-1
2.465393410E-1,-1.595973969E-2,-1.613025665E-1,2.230854034E-1
2.515393410E-1,5.538868904E-2,-1.978262663E-1,2.058115005E-1
2.565393410E-1,7.998275757E-2,-2.312499285E-1,1.862325668E-1
2.615393410E-1,7.664489746E-2,-2.141822577E-1,1.777601242E-1
2.665393410E-1,5.247902870E-2,-1.760541201E-1,1.797924042E-1
2.715393410E-1,1.030826569E-2,-1.346194148E-1,1.666049957E-1
2.765393410E-1,-1.203298569E-2,-9.559190273E-2,1.391630173E-1
2.815393410E-1,-5.805206299E-2,-6.958609819E-2,8.496475220E-2
2.865393410E-1,-8.305001259E-2,-7.622456551E-2,3.187561035E-2
2.915393410E-1,-8.998608589E-2,-8.164900541E-2,4.014968872E-3
2.965393410E-1,-6.308698654E-2,-8.499175310E-2,-9.334564209E-3
3.015393410E-1,-2.684450150E-2,-9.878045321E-2,1.287937164E-2
3.065393410E-1,2.158737183E-2,-1.065898538E-1,-3.444290161E-2
3.115393410E-1,7.637214661E-2,-1.074235141E-1,-9.538078308E-2
3.165393410E-1,2.442884445E-2,-5.456960201E-2,9.128189087E-2
3.215393410E-1,4.965639114E-2,-3.009301424E-2,-8.430767059E-2
3.265393410E-1,9.457206726E-2,8.665055037E-3,-2.363595963E-1
3.315393410E-1,1.268708706E-1,4.106295109E-2,-4.049148560E-1
3.365393410E-1,1.108205318E-1,7.268774509E-2,-5.484132767E-1
3.415393410E-1,8.407545090E-2,9.398213029E-2,-6.726131439E-1
3.465393410E-1,5.503320694E-2,8.195570111E-2,-7.572288513E-1
3.515393410E-1,2.561163902E-2,1.010520160E-1,-8.048038483E-1
3.565393410E-1,1.993894577E-2,1.232576370E-1,-8.009595871E-1
3.615393410E-1,5.934405327E-2,8.129176497E-2,-8.006067276E-1
3.665393410E-1,9.422922134E-2,3.609335423E-2,-6.293592453E-1
3.715393410E-1,1.132909060E-1,-4.291942716E-2,-4.166908264E-1
3.765393410E-1,1.757155657E-1,-1.260088384E-1,-2.809543610E-1
3.815393410E-1,2.562781572E-1,-2.018870562E-1,-1.501026154E-1
3.865393410E-1,3.414982557E-1,-3.043477833E-1,-1.160430908E-2
3.915393410E-1,3.792334795E-1,-3.845207095E-1,1.287889481E-1
3.965393410E-1,3.778679371E-1,-4.518108964E-1,1.953105927E-1
4.015393410E-1,3.420096636E-1,-4.680385292E-1,2.592878342E-1
4.065393410E-1,2.960594893E-1,-4.552840590E-1,2.534065247E-1
4.115393410E-1,2.504568100E-1,-4.145251215E-1,2.431821823E-1
4.165393410E-1,1.704064608E-1,-3.504732251E-1,2.124757767E-1
4.215393410E-1,1.188142300E-1,-2.598055899E-1,1.417312622E-1
4.265393410E-1,9.750473499E-2,-1.690268219E-1,1.245069504E-1
4.315393410E-1,1.250535250E-1,-6.688412279E-2,1.122684479E-1
4.365393410E-1,1.704952717E-1,5.076505244E-3,7.540988922E-2
4.415393410E-1,2.021639347E-1,6.328813732E-2,3.072834015E-2
4.465393410E-1,2.358173132E-1,1.341605186E-1,-1.825714111E-2
4.515393410E-1,2.725164890E-1,1.796393394E-1,-1.241207123E-1
4.565393410E-1,3.897775412E-1,1.771737784E-1,-3.797225952E-1
4.615393410E-1,4.374814034E-1,1.861482114E-1,-3.583936691E-1
4.665393410E-1,4.437575340E-1,2.081603408E-1,-4.466905594E-1
4.715393410E-1,4.911743402E-1,1.607068032E-1,-5.721979141E-1
4.765393410E-1,4.793174267E-1,1.206194460E-1,-5.236330032E-1
4.815393410E-1,4.873431921E-1,6.795199215E-2,-5.839433670E-1
4.865393410E-1,4.648391008E-1,2.023588493E-2,-5.300140381E-1
4.915393410E-1,4.448932409E-1,-1.707625017E-2,-4.869441986E-1
4.965393410E-1,4.205006361E-1,-4.252191633E-2,-4.132738113E-1
5.015393410E-1,3.802322149E-1,-7.271087915E-2,-3.146076202E-1
5.065393410E-1,3.536974192E-1,-7.480271161E-2,-2.390766144E-1
5.115393410E-1,3.328570127E-1,-8.931349218E-2,-1.491260529E-1
5.165393410E-1,3.289443254E-1,-9.679506719E-2,-6.650829315E-2
5.215393410E-1,3.066414595E-1,-8.692698181E-2,1.171016693E-2
5.265393410E-1,3.034554720E-1,-6.277446449E-2,8.142185211E-2
5.315393410E-1,2.971732616E-1,2.121031284E-3,9.626388550E-2
5.365393410E-1,2.853995562E-1,7.573105395E-2,7.011699677E-2
5.415393410E-1,2.501877546E-1,1.561776400E-1,2.891159058E-2
5.465393410E-1,1.969445944E-1,2.430360019E-1,-1.782321930E-2
5.515393410E-1,1.381618977E-1,3.394102156E-1,-9.021949768E-2
5.565393410E-1,6.832730770E-2,3.873547018E-1,-1.789627075E-1
5.615393410E-1,-2.561688423E-3,4.310107827E-1,-2.555036545E-1
5.665393410E-1,-4.290819168E-2,4.510526955E-1,-3.186740875E-1
5.715393410E-1,-5.750000477E-2,4.490514398E-1,-3.943014145E-1
5.765393410E-1,-2.544057369E-2,4.027588665E-1,-4.967250824E-1
5.815393410E-1,-1.009798050E-2,3.263546824E-1,-6.120624542E-1
5.865393410E-1,2.690470219E-2,1.937562525E-1,-7.116107941E-1
5.915393410E-1,3.394484520E-2,9.672036767E-2,-7.413454056E-1
5.965393410E-1,4.859948158E-2,6.550252438E-3,-6.844310760E-1
6.015393410E-1,4.465556145E-2,-6.907631457E-2,-5.525188446E-1
6.065393410E-1,3.502988815E-2,-1.397960335E-1,-3.874387741E-1
6.115393410E-1,2.409744263E-2,-2.092287689E-1,-1.831083298E-1
6.165393410E-1,2.597522736E-2,-2.638678551E-1,1.214218140E-2
6.215393410E-1,2.905619144E-2,-3.247393966E-1,2.133922577E-1
6.265393410E-1,2.518832684E-2,-4.115994871E-1,4.381780624E-1
6.315393410E-1,2.466392517E-2,-5.127432346E-1,6.152372360E-1
6.365393410E-1,3.312945366E-2,-5.843772888E-1,7.953481674E-1
6.415393410E-1,4.787027836E-2,-6.357916594E-1,8.724365234E-1
6.465393410E-1,5.772602558E-2,-6.474121809E-1,9.104347229E-1
6.515393410E-1,6.897604465E-2,-6.317890882E-1,9.201860428E-1
6.565393410E-1,8.801054955E-2,-5.646747351E-1,8.649864197E-1
6.615393410E-1,9.288251400E-2,-4.769384265E-1,7.727785110E-1
6.665393410E-1,8.967733383E-2,-3.921942413E-1,6.544094086E-1
6.715393410E-1,7.923352718E-2,-3.022091091E-1,5.473833084E-1
6.765393410E-1,8.181643486E-2,-1.709218025E-1,4.266920090E-1
6.815393410E-1,1.043936014E-1,-6.294071674E-3,2.990341187E-1
6.865393410E-1,1.336378455E-1,1.482022107E-1,1.894340515E-1
6.915393410E-1,1.705893278E-1,2.902687490E-1,6.393241882E-2
6.965393410E-1,2.177495956E-1,3.907390237E-1,-3.794384003E-2
7.015393410E-1,2.517749071E-1,4.439911246E-1,-1.134338379E-1
7.065393410E-1,2.766877413E-1,4.614162445E-1,-1.937646866E-1
7.115393410E-1,3.219860196E-1,4.508996606E-1,-2.386665344E-1
7.165393410E-1,3.723763824E-1,4.122563899E-1,-2.678089142E-1
7.215393410E-1,3.998574018E-1,3.259665072E-1,-2.970552444E-1
7.265393410E-1,3.799461126E-1,1.977756619E-1,-2.919311523E-1
7.315393410E-1,3.247874975E-1,9.545257688E-2,-2.750597000E-1
7.365393410E-1,2.414618134E-1,-2.482670546E-2,-2.068367004E-1
7.415393410E-1,1.625956893E-1,-1.207267046E-1,-1.352672577E-1
7.465393410E-1,8.292478323E-2,-1.781209111E-1,-5.002784729E-2
7.515393410E-1,2.268445492E-2,-2.237998545E-1,6.188106537E-2
7.565393410E-1,-1.777982712E-2,-2.501265407E-1,1.338157654E-1
7.615393410E-1,-4.438662529E-2,-2.910003662E-1,1.908941269E-1
7.665393410E-1,-5.743277073E-2,-2.985303104E-1,1.882572174E-1
7.715393410E-1,-6.573796272E-2,-2.764911354E-1,1.511106491E-1
7.765393410E-1,-4.884028435E-2,-2.420257032E-1,1.071529388E-1
7.815393410E-1,-1.987886429E-2,-1.796668172E-1,8.922004700E-2
7.865393410E-1,4.099220037E-2,-1.675020158E-1,6.180191040E-2
7.915393410E-1,6.471937895E-2,-1.471793056E-1,6.535911560E-2
7.965393410E-1,1.002826095E-1,-1.230814457E-1,6.200981140E-2
8.015393410E-1,1.102972031E-1,-1.152707338E-1,6.199264526E-2
8.065393410E-1,1.241791844E-1,-7.349753380E-2,4.116058350E-2
8.115393410E-1,1.481176615E-1,-2.290023863E-2,-5.815505981E-3
8.165393410E-1,1.541368365E-1,-2.098470926E-3,-8.782386780E-3
8.215393410E-1,1.457826495E-1,3.908261657E-2,-2.266216278E-2
8.265393410E-1,1.395909190E-1,5.689220130E-2,-3.041172028E-2
8.315393410E-1,1.281495094E-1,6.492680311E-2,-6.197643280E-2
8.365393410E-1,1.121065021E-1,4.589106143E-2,-1.064147949E-1
8.415393410E-1,7.814788818E-2,1.941643655E-2,-1.314821243E-1
8.465393410E-1,2.595001459E-2,1.956135035E-3,-1.598567963E-1
8.515393410E-1,1.292133331E-2,-1.567922533E-2,-1.473007202E-1
8.565393410E-1,-1.002591848E-2,-2.577050030E-2,-1.488628387E-1
8.615393410E-1,-4.233026505E-2,-4.040561616E-2,-1.198472977E-1
8.665393410E-1,-8.155483007E-2,-2.210204303E-2,-9.870624542E-2
8.715393410E-1,-1.332405210E-1,-1.768611372E-2,-6.843185425E-2
8.765393410E-1,-1.940993071E-1,-2.680346370E-2,-6.656074524E-2
8.815393410E-1,-2.352122068E-1,-5.132909119E-2,-8.348464966E-2
8.865393410E-1,-2.724916935E-1,-8.105309308E-2,-1.223993301E-1
8.915393410E-1,-2.884656191E-1,-8.901536465E-2,-1.880769730E-1
8.965393410E-1,-2.748600245E-1,-8.073019981E-2,-2.636842728E-1
9.015393410E-1,-2.651419640E-1,-3.530295193E-2,-3.427410126E-1
9.065393410E-1,-2.202105522E-1,2.787134051E-2,-4.021368027E-1
9.115393410E-1,-1.576956511E-1,1.351571083E-1,-4.574575424E-1
9.165393410E-1,-9.513485432E-2,2.372136414E-1,-4.829740524E-1
9.215393410E-1,-6.867027283E-2,2.746159434E-1,-4.741725922E-1
9.265393410E-1,-7.103389502E-2,3.211279213E-1,-4.448966980E-1
9.315393410E-1,-6.534481049E-2,3.368130624E-1,-4.194316864E-1
9.365393410E-1,-6.054496765E-2,3.335118890E-1,-3.801269531E-1
9.415393410E-1,-4.010760784E-2,3.273756802E-1,-3.553075790E-1
9.465393410E-1,-4.063254595E-2,2.951156497E-1,-3.345584869E-1
9.515393410E-1,-9.376978874E-2,2.581660450E-1,-2.819061279E-1
9.565393410E-1,-1.513249874E-1,2.264279723E-1,-2.867612839E-1
9.615393410E-1,-2.250829935E-1,2.005043328E-1,-2.866621017E-1
9.665393410E-1,-3.039827943E-1,1.448768824E-1,-2.470541000E-1
9.715393410E-1,-3.702898622E-1,1.171346009E-1,-1.877946854E-1
9.765393410E-1,-4.497999549E-1,9.498712420E-2,-1.097269058E-1
9.815393410E-1,-4.906297922E-1,9.623805434E-2,-4.701900482E-2
9.865393410E-1,-5.101140141E-1,9.977401793E-2,3.566741943E-4
9.915393410E-1,-5.180726051E-1,1.086675301E-1,4.739761353E-3
9.965393410E-1,-5.174812675E-1,9.856963158E-2,-2.835845947E-2
1.001539341E0,-4.959709048E-1,7.959836721E-2,-7.627773285E-2
1.006539341E0,-3.907014132E-1,8.940561116E-2,-1.836767197E-1
1.011539341E0,-2.482637167E-1,1.419102997E-1,-2.534313202E-1
1.016539341E0,-1.004201174E-1,1.808899939E-1,-2.588510513E-1
1.021539341E0,-1.243937016E-2,2.096608132E-1,-2.471590042E-1
1.026539341E0,1.516354084E-2,1.978911757E-1,-1.898527145E-1
1.031539341E0,2.688765526E-3,1.818114221E-1,-1.401109695E-1
1.036539341E0,-8.460640907E-2,1.211790219E-1,-7.773685455E-2
1.041539341E0,-2.540017366E-1,-1.488841698E-2,-1.469469070E-1
1.046539341E0,-3.599511981E-1,-6.662700325E-2,-1.247777939E-1
1.051539341E0,-4.584268332E-1,-4.479720443E-2,-2.279281616E-4
1.056539341E0,-5.089303255E-1,-9.544290602E-3,1.730337143E-1
1.061539341E0,-4.988470078E-1,5.659081042E-2,3.256311417E-1
1.066539341E0,-4.992285967E-1,9.626414627E-2,4.919004440E-1
1.071539341E0,-5.005975962E-1,7.536530495E-2,6.117677689E-1
1.076539341E0,-5.154825449E-1,3.065928817E-3,5.747547150E-1
1.081539341E0,-4.644261003E-1,-9.460318089E-2,3.051233292E-1
1.086539341E0,-2.931554914E-1,-2.761701345E-1,-3.312797546E-1
1.091539341E0,-3.004630804E-1,-3.543164730E-1,-4.088172913E-1
1.096539341E0,-2.550240159E-1,-3.165270388E-1,-7.528600693E-1
1.101539341E0,-1.893402338E-1,-2.383143306E-1,-9.921302795E-1
1.106539341E0,-8.809918165E-2,-1.279168129E-1,-1.265102386E0
1.111539341E0,-7.226920128E-2,3.040915728E-2,-1.368330002E0
1.116539341E0,-2.043631077E-1,1.848400831E-1,-1.124312401E0
1.121539341E0,-3.377026916E-1,3.009678721E-1,-7.662153244E-1
1.126539341E0,-3.514349461E-1,4.241270721E-1,-5.792617798E-1
1.131539341E0,-2.744223475E-1,4.804802537E-1,-4.603815079E-1
1.136539341E0,-1.856704950E-1,5.025946498E-1,-3.137073517E-1
1.141539341E0,-5.458611250E-2,5.076621771E-1,-2.352504730E-1
1.146539341E0,1.005154252E-1,4.927509427E-1,-2.318706512E-1
1.151539341E0,2.953923047E-1,5.369523764E-1,-2.323350906E-1
1.156539341E0,4.621785879E-1,5.762743950E-1,-2.269430161E-1
1.161539341E0,5.454602838E-1,5.828353763E-1,-2.380056381E-1
1.166539341E0,5.790145397E-1,5.312506557E-1,-2.821722031E-1
1.171539341E0,5.400259495E-1,4.270083308E-1,-1.871786118E-1
1.176539341E0,4.659713507E-1,3.120341599E-1,-2.142934799E-1
1.181539341E0,2.944745123E-1,1.681828201E-1,-2.998476028E-1
1.186539341E0,9.218811989E-2,9.296298027E-3,-4.170274734E-1
1.191539341E0,-7.822224498E-2,-1.130351722E-1,-5.925092697E-1
1.196539341E0,-1.632612646E-1,-2.405219674E-1,-6.811695099E-1
1.201539341E0,-1.556503773E-1,-2.932326198E-1,-7.267532349E-1
1.206539341E0,-2.329981327E-2,-2.532980442E-1,-7.883729935E-1
1.211539341E0,1.845813394E-1,-8.875268698E-2,-1.038955688E0
1.216539341E0,4.329777956E-1,1.534314156E-1,-1.265955925E0
1.221539341E0,6.742473245E-1,4.451622963E-1,-1.337465286E0
1.226539341E0,9.080663919E-1,7.683849931E-1,-1.258929253E0
1.231539341E0,1.047959805E0,1.136861086E0,-1.129425049E0
1.236539341E0,1.081232429E0,1.497518539E0,-9.457178116E-1
1.241539341E0,1.001180053E0,1.897315860E0,-7.292251587E-1
1.246539341E0,8.269373178E-1,2.274652481E0,-4.207601547E-1
1.251539341E0,6.169266701E-1,2.623127699E0,-7.833194733E-2
1.256539341E0,4.708829224E-1,2.851436615E0,3.321466446E-1
1.261539341E0,4.851492643E-1,2.847079754E0,4.746913910E-1
1.266539341E0,4.919040203E-1,2.809834719E0,7.831649780E-1
1.271539341E0,4.929225743E-1,2.725438356E0,9.058122635E-1
1.276539341E0,4.820204079E-1,2.535171986E0,8.412246704E-1
1.281539341E0,4.608128667E-1,2.314880610E0,5.312643051E-1
1.286539341E0,4.837434590E-1,2.111620665E0,1.821670532E-1
1.291539341E0,5.639522076E-1,1.886688471E0,-2.083234787E-1
1.296539341E0,7.267796993E-1,1.692747951E0,-6.458492279E-1
1.301539341E0,8.994733095E-1,1.550055861E0,-1.112713814E0
1.306539341E0,1.011392474E0,1.435111642E0,-1.571005821E0
1.311539341E0,1.109685659E0,1.342284918E0,-1.769017220E0
1.316539341E0,1.277207017E0,1.252538681E0,-1.612618446E0
1.321539341E0,1.493198752E0,1.205316544E0,-1.122010231E0
1.326539341E0,1.561624527E0,1.176808119E0,-4.177112579E-1
1.331539341E0,1.553907156E0,1.158368349E0,4.038419724E-1
1.336539341E0,1.518279791E0,1.115363836E0,1.297570229E0
1.341539341E0,1.444109559E0,1.113003254E0,2.167757988E0
1.346539341E0,1.318234801E0,1.138231158E0,2.922873497E0
1.351539341E0,1.116901755E0,1.229189634E0,3.447341919E0
1.356539341E0,8.334474564E-1,1.395032883E0,3.705089569E0
1.361539341E0,6.298934817E-1,1.546776533E0,3.663673401E0
1.366539341E0,6.042383909E-1,1.643097162E0,3.315950394E0
1.371539341E0,5.852162242E-1,1.583463430E0,2.712166786E0
1.376539341E0,6.023951173E-1,1.395034790E0,1.974400520E0
1.381539341E0,5.313691497E-1,1.205116034E0,1.166163445E0
1.386539341E0,3.361929059E-1,1.094239712E0,4.183425903E-1
1.391539341E0,7.373813540E-2,1.095927477E0,-2.706279755E-1
1.396539341E0,-1.846126616E-1,1.152556062E0,-8.168458939E-1
1.401539341E0,-4.811898768E-1,1.222164392E0,-1.172478676E0
1.406539341E0,-7.483135462E-1,1.283176780E0,-1.291383743E0
1.411539341E0,-9.213291407E-1,1.327966213E0,-1.274021149E0
1.416539341E0,-9.898315668E-1,1.367493391E0,-1.149655342E0
1.421539341E0,-1.023939252E0,1.372367978E0,-1.068571091E0
1.426539341E0,-1.069991231E0,1.327808142E0,-1.063333511E0
1.431539341E0,-1.064721346E0,1.279674292E0,-1.083811760E0
1.436539341E0,-1.248790264E0,1.354137540E0,-9.003553391E-1
1.441539341E0,-1.162268400E0,1.274240613E0,-9.057607651E-1
1.446539341E0,-9.580881000E-1,1.179712296E0,-9.277944565E-1
1.451539341E0,-8.216342926E-1,1.118259430E0,-9.324169159E-1
1.456539341E0,-7.152111530E-1,1.103881717E0,-1.038626671E0
1.461539341E0,-7.136382461E-1,1.235028982E0,-9.158954620E-1
1.466539341E0,-6.827627420E-1,1.339524627E0,-7.547645569E-1
1.471539341E0,-5.184237957E-1,1.345834255E0,-5.754823685E-1
1.476539341E0,-4.613832831E-1,1.389151335E0,-1.533164978E-1
1.481539341E0,-3.929288089E-1,1.292509794E0,6.363582611E-2
1.486539341E0,-3.223216534E-1,1.107274294E0,2.649755478E-1
1.491539341E0,-3.148327470E-1,8.995040655E-1,3.912010193E-1
1.496539341E0,-3.389659822E-1,6.977952719E-1,5.439119339E-1
1.501539341E0,-3.335167170E-1,5.556674004E-1,7.907896042E-1
1.506539341E0,-3.323708773E-1,3.894113004E-1,9.340963364E-1
1.511539341E0,-4.325437546E-1,6.945639849E-2,9.479103088E-1
1.516539341E0,-6.016901731E-1,-3.039026260E-1,8.346605301E-1
1.521539341E0,-7.315448523E-1,-5.723090768E-1,6.497907639E-1
1.526539341E0,-7.232578993E-1,-6.630926728E-1,4.627189636E-1
1.531539341E0,-6.584590077E-1,-6.345723867E-1,3.549747467E-1
1.536539341E0,-5.971205235E-1,-5.208960176E-1,2.838068008E-1
1.541539341E0,-5.655890107E-1,-3.394077420E-1,3.279180527E-1
1.546539341E0,-5.402016044E-1,-8.795565367E-2,3.918724060E-1
1.551539341E0,-4.547407627E-1,2.141549587E-1,4.008150101E-1
1.556539341E0,-3.731320202E-1,5.219536424E-1,3.505735397E-1
1.561539341E0,-2.568406165E-1,8.167353272E-1,2.682857513E-1
1.566539341E0,-1.504644901E-1,1.017902851E0,2.304248810E-1
1.571539341E0,-2.001412027E-2,1.133848190E0,1.862030029E-1
1.576539341E0,6.403161585E-2,1.106528401E0,1.557025909E-1
1.581539341E0,1.536281109E-1,9.055756927E-1,1.982145309E-1
1.586539341E0,2.336811572E-1,5.607181787E-1,2.860555649E-1
1.591539341E0,2.798372507E-1,1.183037758E-1,4.596939087E-1
1.596539341E0,3.329733312E-1,-4.066661596E-1,6.748638153E-1
1.601539341E0,3.797998428E-1,-9.387713671E-1,9.499721527E-1
1.606539341E0,4.177433848E-1,-1.404911041E0,1.168264389E0
1.611539341E0,5.122256279E-1,-1.746209621E0,1.397265434E0
1.616539341E0,6.859517097E-1,-1.914695024E0,1.630951881E0
1.621539341E0,8.366706371E-1,-1.904365897E0,1.886127472E0
1.626539341E0,9.087727666E-1,-1.714768767E0,2.149350166E0
1.631539341E0,8.871715069E-1,-1.415376544E0,2.258752823E0
1.636539341E0,8.471604586E-1,-1.042948842E0,2.191036224E0
1.641539341E0,8.768880367E-1,-6.649737358E-1,1.999573708E0
1.646539341E0,9.994890690E-1,-3.096458912E-1,1.726413727E0
1.651539341E0,1.184269309E0,4.774177074E-2,1.394886017E0
1.656539341E0,1.434562922E0,3.644756079E-1,1.087623596E0
1.661539341E0,1.662064314E0,6.535954475E-1,7.854270935E-1
1.666539341E0,1.830411196E0,8.288935423E-1,4.988899231E-1
1.671539341E0,1.968731284E0,8.642538786E-1,2.997331619E-1
1.676539341E0,2.059744835E0,8.237155080E-1,2.239370346E-1
1.681539341E0,2.102525949E0,7.795376182E-1,2.216920853E-1
1.686539341E0,2.051852942E0,7.840994000E-1,1.962919235E-1
1.691539341E0,1.864068866E0,8.167220354E-1,1.027927399E-1
1.696539341E0,1.545181394E0,7.609442472E-1,-5.512142181E-2
1.701539341E0,1.139791846E0,6.766098142E-1,-2.305030823E-1
1.706539341E0,8.146740198E-1,6.300446987E-1,-4.636154175E-1
1.711539341E0,5.949991345E-1,5.748142004E-1,-8.730278015E-1
1.716539341E0,4.498621821E-1,5.426881909E-1,-1.328810692E0
1.721539341E0,3.081378341E-1,5.326234102E-1,-1.777239323E0
1.726539341E0,1.848127246E-1,5.321148038E-1,-2.257481575E0
1.731539341E0,1.827880442E-1,6.118396521E-1,-2.452792168E0
1.736539341E0,2.786741555E-1,8.043110371E-1,-2.305377960E0
1.741539341E0,4.501924813E-1,1.039844155E0,-1.924410820E0
1.746539341E0,6.104466915E-1,1.171157241E0,-1.482066154E0
1.751539341E0,8.948060274E-1,1.175061226E0,-1.088571548E0
1.756539341E0,1.185333610E0,1.102997303E0,-7.625827789E-1
1.761539341E0,1.401443243E0,1.043752670E0,-4.936494827E-1
1.766539341E0,1.368708968E0,9.444447756E-1,-1.788444519E-1
1.771539341E0,6.962697506E-1,6.229999065E-1,9.280033112E-1
1.776539341E0,3.439092338E-1,6.535431147E-1,6.374406815E-1
1.781539341E0,2.140478194E-1,6.186796427E-1,-8.113803864E-1
1.786539341E0,-2.955698967E-2,3.963673711E-1,-1.178542137E0
1.791539341E0,2.040738463E-1,1.658103317E-1,-7.259950638E-1
1.796539341E0,1.903785467E-1,-1.789120585E-1,-2.840223312E-1
1.801539341E0,-1.316833496E-2,-5.699022412E-1,1.156730652E-1
1.806539341E0,-2.290838361E-1,-9.644473195E-1,6.977148056E-1
1.811539341E0,-4.104202390E-1,-1.296515226E0,1.165665627E0
1.816539341E0,-5.269836783E-1,-1.484827995E0,1.458386421E0
1.821539341E0,-5.689350367E-1,-1.547436357E0,1.695396423E0
1.826539341E0,-5.362411737E-1,-1.467655182E0,1.885400772E0
1.831539341E0,-4.141445756E-1,-1.258161187E0,2.003642082E0
1.836539341E0,-2.592728138E-1,-9.790847898E-1,2.086008072E0
1.841539341E0,-1.083758473E-1,-7.045204639E-1,2.048917770E0
1.846539341E0,4.391121864E-2,-4.543848336E-1,1.964130402E0
1.851539341E0,1.629667580E-1,-2.968680561E-1,1.863716125E0
1.856539341E0,2.075133324E-1,-2.240560949E-1,1.749152184E0
1.861539341E0,1.085960865E-1,-2.174433172E-1,1.672175407E0
1.866539341E0,-4.278969765E-2,-2.500893176E-1,1.604656219E0
1.871539341E0,-2.204246521E-1,-3.471850753E-1,1.532855988E0
1.876539341E0,-3.610936403E-1,-4.638781250E-1,1.411363602E0
1.881539341E0,-4.693409204E-1,-5.597855449E-1,1.254910469E0
1.886539341E0,-5.506718159E-1,-5.962164402E-1,1.073674202E0
1.891539341E0,-5.315055251E-1,-8.342270255E-1,-1.123132706E-1
1.896539341E0,-6.705468297E-1,-1.013628840E0,-4.622793198E-1
1.901539341E0,-6.672198772E-1,-6.467500925E-1,9.462356567E-3
1.906539341E0,-8.318635821E-1,-3.403409421E-1,-1.064682007E-1
1.911539341E0,-1.154476166E0,-9.742248058E-2,-3.081398010E-1
1.916539341E0,-1.429329872E0,1.951965690E-1,-4.603576660E-1
1.921539341E0,-1.610457897E0,4.095303416E-1,-7.236881256E-1
1.926539341E0,-1.738912344E0,6.037675142E-1,-9.704761505E-1
1.931539341E0,-1.753982067E0,7.252880335E-1,-1.120241165E0
1.936539341E0,-1.693918824E0,8.164048791E-1,-1.076190948E0
1.941539341E0,-1.681835532E0,8.873499632E-1,-9.656972885E-1
1.946539341E0,-1.667281866E0,9.319493175E-1,-8.562822342E-1
1.951539341E0,-1.592841744E0,9.591009021E-1,-7.406539917E-1
1.956539341E0,-1.497684479E0,9.836214781E-1,-6.496963501E-1
1.961539341E0,-1.404824257E0,1.018184900E0,-5.070571899E-1
1.966539341E0,-1.333000183E0,1.082236290E0,-5.131311417E-1
1.971539341E0,-1.251271963E0,1.092697382E0,-7.089624405E-1
1.976539341E0,-1.201042533E0,1.101167083E0,-8.443965912E-1
1.981539341E0,-1.213192463E0,1.115869045E0,-9.033164978E-1
1.986539341E0,-1.279849529E0,1.142722845E0,-8.861732483E-1
1.991539341E0,-1.331647873E0,1.161032915E0,-8.258047104E-1
1.996539341E0,-1.317674994E0,1.126319647E0,-7.258930206E-1
2.001539341E0,-1.227157593E0,1.066397905E0,-5.617647171E-1
2.006539341E0,-1.159903526E0,9.620256424E-1,-3.827247620E-1
2.011539341E0,-1.054459572E0,8.368709087E-1,-2.376508713E-1
2.016539341E0,-9.404878616E-1,6.945427656E-1,-1.016941071E-1
2.021539341E0,-8.259913921E-1,5.686853528E-1,5.727386475E-2
2.026539341E0,-7.087260485E-1,4.226669073E-1,2.043008804E-1
2.031539341E0,-6.236889362E-1,2.742529809E-1,3.074007034E-1
2.036539341E0,-5.903984308E-1,1.296321303E-1,3.126192093E-1
2.041539341E0,-6.012626886E-1,3.338584304E-2,1.741209030E-1
2.046539341E0,-6.428898573E-1,1.441183686E-2,-2.394485474E-2
2.051539341E0,-6.822389364E-1,5.159276724E-2,-2.094812393E-1
2.056539341E0,-7.252153158E-1,1.661406755E-1,-3.273887634E-1
2.061539341E0,-7.469621897E-1,2.957736552E-1,-3.884382248E-1
2.066539341E0,-7.612929344E-1,3.854820132E-1,-3.328895569E-1
2.071539341E0,-7.142411470E-1,4.106608629E-1,-2.575960159E-1
2.076539341E0,-6.162790060E-1,4.175508618E-1,-2.370462418E-1
2.081539341E0,-4.397895336E-1,4.507697523E-1,-2.015390396E-1
2.086539341E0,-2.792024612E-1,5.443196297E-1,-1.793041229E-1
2.091539341E0,-1.603811979E-1,6.513900161E-1,-1.920232773E-1
2.096539341E0,-2.380716801E-2,7.659659386E-1,-2.360582352E-1
2.101539341E0,1.184382439E-1,8.946650624E-1,-2.601432800E-1
2.106539341E0,2.122148275E-1,1.000796437E0,-3.078718185E-1
2.111539341E0,2.763808966E-1,1.062244892E0,-3.580331802E-1
2.116539341E0,3.047056198E-1,1.099279881E0,-4.152393341E-1
2.121539341E0,3.242607117E-1,1.107139826E0,-4.770669937E-1
2.126539341E0,2.960098982E-1,1.062723041E0,-5.599880219E-1
2.131539341E0,2.067948580E-1,9.394648075E-1,-6.736812592E-1
2.136539341E0,1.068954468E-1,7.707448006E-1,-7.853412628E-1
2.141539341E0,5.000579357E-2,6.065875292E-1,-8.307628632E-1
2.146539341E0,-3.305840492E-2,4.391866028E-1,-8.863677979E-1
2.151539341E0,-1.243860722E-1,3.230435550E-1,-9.127616882E-1
2.156539341E0,-1.896601915E-1,2.839330435E-1,-8.993206024E-1
2.161539341E0,-2.233911753E-1,3.314953446E-1,-8.835620880E-1
2.166539341E0,-2.088871002E-1,3.786540031E-1,-8.292102814E-1
2.171539341E0,-1.500514746E-1,4.706886709E-1,-7.706260681E-1
2.176539341E0,-5.298411846E-2,5.657995343E-1,-7.110910416E-1
2.181539341E0,6.162619591E-2,6.631718874E-1,-6.456098557E-1
2.186539341E0,1.646932364E-1,7.280050516E-1,-5.692567825E-1
2.191539341E0,2.185997963E-1,7.542734146E-1,-4.552822113E-1
2.196539341E0,2.261567116E-1,7.622977495E-1,-3.102111816E-1
2.201539341E0,1.947724819E-1,7.736902833E-1,-1.859178543E-1
2.206539341E0,8.130955696E-2,7.507187724E-1,-1.084794998E-1
2.211539341E0,-2.580392361E-2,7.201396227E-1,-7.022285461E-2
2.216539341E0,-9.382367134E-2,6.665462255E-1,-2.842426300E-2
2.221539341E0,-1.462956667E-1,5.932521224E-1,1.231861115E-2
2.226539341E0,-1.604974270E-1,5.589025021E-1,5.922985077E-2
2.231539341E0,-1.654527187E-1,5.474715829E-1,9.022617340E-2
2.236539341E0,-2.344042063E-1,5.728787184E-1,7.146930695E-2
2.241539341E0,-2.926315069E-1,6.267231107E-1,-3.208160400E-3
2.246539341E0,-3.268866539E-1,6.962525249E-1,-1.011791229E-1
2.251539341E0,-3.907479048E-1,7.451943159E-1,-1.413450241E-1
2.256539341E0,-4.461190701E-1,7.724218369E-1,-1.880321503E-1
2.261539341E0,-4.870712757E-1,7.673810720E-1,-1.768798828E-1
2.266539341E0,-4.713222980E-1,7.107423544E-1,-1.085882187E-1
2.271539341E0,-4.040155411E-1,5.781149864E-1,-2.112674713E-2
2.276539341E0,-3.203667402E-1,3.568232954E-1,8.550834656E-2
2.281539341E0,-2.010672092E-1,1.626673043E-1,2.587337494E-1
2.286539341E0,-5.305671692E-2,3.606796265E-3,5.897560120E-1
2.291539341E0,9.652781487E-2,-1.092385650E-1,1.082359314E0
2.296539341E0,1.870658398E-1,-1.915191710E-1,1.631770134E0
2.301539341E0,2.337182760E-1,-2.764472365E-1,2.192899704E0
2.306539341E0,2.254207134E-1,-3.928053081E-1,2.765002251E0
2.311539341E0,1.604212523E-1,-5.525443554E-1,3.288099289E0
2.316539341E0,2.339017391E-2,-7.110204101E-1,3.766600609E0
2.321539341E0,-8.484041691E-2,-8.632949591E-1,4.233151436E0
2.326539341E0,-1.459804773E-1,-9.453270435E-1,4.566537857E0
2.331539341E0,-1.615018845E-1,-9.861783981E-1,4.784127235E0
2.336539341E0,-9.820079803E-2,-9.646764994E-1,4.810969353E0
2.341539341E0,2.505075932E-2,-9.369218349E-1,4.532791138E0
2.346539341E0,2.437474728E-1,-9.000854492E-1,4.031702995E0
2.351539341E0,4.839462638E-1,-9.394818544E-1,3.556049347E0
2.356539341E0,7.263330221E-1,-1.041842461E0,3.101922989E0
2.361539341E0,9.865297079E-1,-1.156927705E0,2.718790054E0
2.366539341E0,1.197118402E0,-1.323805451E0,2.370747566E0
2.371539341E0,1.353464603E0,-1.538907647E0,2.130836487E0
2.376539341E0,1.377192259E0,-1.780843735E0,2.019333839E0
2.381539341E0,1.255535126E0,-2.009553909E0,2.015500069E0
2.386539341E0,1.003411174E0,-2.189923048E0,2.117307663E0
2.391539341E0,6.855708361E-1,-2.299939394E0,2.255164146E0
2.396539341E0,3.530755043E-1,-2.374100208E0,2.322316170E0
2.401539341E0,2.611255646E-2,-2.426493168E0,2.279382706E0
2.406539341E0,-2.417060137E-1,-2.464443207E0,2.029260635E0
2.411539341E0,-4.085739851E-1,-2.446795225E0,1.621410370E0
2.416539341E0,-5.069209337E-1,-2.349983215E0,1.134812355E0
2.421539341E0,-5.248481035E-1,-2.188894987E0,5.422954559E-1
2.426539341E0,-4.849228859E-1,-1.952010632E0,-2.626037598E-2
2.431539341E0,-4.163432121E-1,-1.661437511E0,-5.631456375E-1
2.436539341E0,-2.953858376E-1,-1.361658931E0,-1.068250656E0
2.441539341E0,-1.002005339E-1,-1.053837538E0,-1.560752869E0
2.446539341E0,9.599184990E-2,-7.453283668E-1,-2.026300430E0
2.451539341E0,2.679479122E-1,-4.676999450E-1,-2.432331562E0
2.456539341E0,4.772299528E-1,-1.978460848E-1,-2.716349602E0
2.461539341E0,6.991728544E-1,4.593411088E-2,-2.851227760E0
2.466539341E0,9.354925156E-1,2.607013285E-1,-2.867021561E0
2.471539341E0,1.115688324E0,4.325860441E-1,-2.761802197E0
2.476539341E0,1.265243530E0,5.080211163E-1,-2.588965416E0
2.481539341E0,1.334608555E0,4.543870687E-1,-2.364244938E0
2.486539341E0,1.325303316E0,3.320828378E-1,-2.099246025E0
2.491539341E0,1.244857788E0,1.038545668E-1,-1.799893856E0
2.496539341E0,1.126091003E0,-1.042507887E-1,-1.492004395E0
2.501539341E0,9.434684515E-1,-2.884926796E-1,-1.208291054E0
2.506539341E0,7.277245522E-1,-4.132925868E-1,-9.175786972E-1
2.511539341E0,5.706783533E-1,-5.163294077E-1,-6.608495712E-1
2.516539341E0,5.011711121E-1,-5.595136881E-1,-4.449548721E-1
2.521539341E0,5.038567185E-1,-5.506509542E-1,-2.545270920E-1
2.526539341E0,5.335342884E-1,-5.079472065E-1,-1.235837936E-1
2.531539341E0,6.078214049E-1,-4.367734194E-1,-1.238765717E-1
2.536539341E0,6.417567730E-1,-2.909227908E-1,-2.204856873E-1
2.541539341E0,6.969562769E-1,-1.056789607E-1,-4.371280670E-1
2.546539341E0,7.590482235E-1,6.536632776E-2,-7.826347351E-1
2.551539341E0,8.190203309E-1,2.175151110E-1,-1.182728767E0
2.556539341E0,8.223097324E-1,3.093180954E-1,-1.571409225E0
2.561539341E0,8.248198628E-1,3.942480385E-1,-1.898904800E0
2.566539341E0,7.850399017E-1,4.738709927E-1,-2.162967682E0
2.571539341E0,7.449412346E-1,5.452508926E-1,-2.389191628E0
2.576539341E0,6.793683767E-1,6.108344793E-1,-2.591111660E0
2.581539341E0,5.724942684E-1,6.751000285E-1,-2.746127129E0
2.586539341E0,4.363130331E-1,6.690584421E-1,-2.843357086E0
2.591539341E0,3.474122286E-1,6.453990936E-1,-2.916059971E0
2.596539341E0,2.508447170E-1,6.253693700E-1,-2.951559544E0
2.601539341E0,1.584353447E-1,5.784879327E-1,-2.957377434E0
2.606539341E0,5.212426186E-2,5.151584148E-1,-2.982778549E0
2.611539341E0,-9.873151779E-3,4.375588000E-1,-2.974798203E0
2.616539341E0,-3.088796139E-2,3.828564286E-1,-2.970653534E0
2.621539341E0,-3.129613400E-2,3.619171083E-1,-2.950566769E0
2.626539341E0,-6.551623344E-3,3.557586670E-1,-2.917945385E0
2.631539341E0,5.724775791E-2,3.960628510E-1,-2.851932049E0
2.636539341E0,1.546874046E-1,4.418852925E-1,-2.737370014E0
2.641539341E0,2.816526890E-1,5.047807097E-1,-2.589211464E0
2.646539341E0,4.201476574E-1,5.780955553E-1,-2.477225780E0
2.651539341E0,5.478245020E-1,6.618920565E-1,-2.371925354E0
2.656539341E0,6.464961767E-1,7.374472618E-1,-2.262793541E0
2.661539341E0,7.271645069E-1,8.074141145E-1,-2.105165482E0
2.666539341E0,8.090107441E-1,8.807278872E-1,-1.906744957E0
2.671539341E0,8.914904594E-1,9.355280399E-1,-1.733369827E0
2.676539341E0,9.776102304E-1,9.624832869E-1,-1.640403271E0
2.681539341E0,1.020228744E0,9.387049079E-1,-1.623146057E0
2.686539341E0,1.017381549E0,9.169133902E-1,-1.657730103E0
2.691539341E0,9.490295649E-1,8.819068074E-1,-1.718472004E0
2.696539341E0,8.360118866E-1,8.771947622E-1,-1.772738457E0
2.701539341E0,6.811491251E-1,8.785158396E-1,-1.827118874E0
2.706539341E0,6.615213156E-1,8.957416415E-1,-1.872849941E0
2.711539341E0,6.473325491E-1,8.774406314E-1,-1.873327255E0
2.716539341E0,6.339234114E-1,8.712058067E-1,-1.770012856E0
2.721539341E0,6.379326582E-1,8.839588761E-1,-1.609074593E0
2.726539341E0,6.537200212E-1,9.088323116E-1,-1.399759293E0
2.731539341E0,6.183428764E-1,9.227662683E-1,-1.160563469E0
2.736539341E0,5.900270939E-1,9.406775832E-1,-9.174909592E-1
2.741539341E0,5.764851570E-1,9.558771253E-1,-6.644659042E-1
2.746539341E0,5.719171762E-1,9.890620708E-1,-4.540090561E-1
2.751539341E0,5.887541771E-1,1.020922184E0,-3.067893982E-1
2.756539341E0,5.592585802E-1,1.049665689E0,-1.737880707E-1
2.761539341E0,4.854091406E-1,1.169692039E0,-7.775115967E-2
2.766539341E0,4.266111851E-1,1.143043041E0,-2.601337433E-2
2.771539341E0,3.450943232E-1,1.105078101E0,9.898567200E-2
2.776539341E0,3.483991623E-1,1.120926619E0,2.364339828E-1
2.781539341E0,3.952817917E-1,1.139610887E0,3.484973907E-1
2.786539341E0,3.815804720E-1,1.181212068E0,5.094957352E-1
2.791539341E0,3.092563152E-1,1.265296698E0,6.502141953E-1
2.796539341E0,2.825391293E-1,1.400125146E0,7.751522064E-1
2.801539341E0,2.913749218E-1,1.535402060E0,8.847522736E-1
2.806539341E0,2.725375891E-1,1.605180979E0,1.021777153E0
2.811539341E0,2.024708986E-1,1.596489668E0,1.279683113E0
2.816539341E0,1.638928652E-1,1.512552261E0,1.573041916E0
2.821539341E0,1.199731827E-1,1.339719534E0,1.848939896E0
2.826539341E0,3.500056267E-2,1.096801281E0,2.097594261E0
2.831539341E0,-9.326362610E-2,7.751716375E-1,2.421680450E0
2.836539341E0,-2.467938662E-1,4.477082491E-1,2.786033630E0
2.841539341E0,-4.203695059E-1,1.036104560E-1,3.224173546E0
2.846539341E0,-6.428151131E-1,-2.158523798E-1,3.696091652E0
2.851539341E0,-8.761073351E-1,-4.966385961E-1,4.091037750E0
2.856539341E0,-1.108312726E0,-6.670125723E-1,4.340685844E0
2.861539341E0,-1.272529125E0,-7.326918244E-1,4.531094551E0
2.866539341E0,-1.364116788E0,-6.531394124E-1,4.639680862E0
2.871539341E0,-1.351429224E0,-5.064481497E-1,4.667615891E0
2.876539341E0,-1.268145800E0,-3.511847258E-1,4.538305283E0
2.881539341E0,-1.085209131E0,-2.385243177E-1,4.361736298E0
2.886539341E0,-8.473560810E-1,-1.858397126E-1,4.216454506E0
2.891539341E0,-5.487669706E-1,-1.757132113E-1,4.140208244E0
2.896539341E0,-2.699985504E-1,-1.890255511E-1,4.112672806E0
2.901539341E0,-5.689799786E-2,-2.309547067E-1,4.209692955E0
2.906539341E0,1.214032769E-1,-3.158717752E-1,4.385213852E0
2.911539341E0,2.324180603E-1,-4.728362858E-1,4.693177223E0
2.916539341E0,2.379986048E-1,-6.575671434E-1,5.058105469E0
2.921539341E0,2.743356228E-1,-9.074921608E-1,5.446681023E0
2.926539341E0,3.125919700E-1,-1.201265335E0,5.780162811E0
2.931539341E0,2.931210399E-1,-1.497192383E0,6.034458160E0
2.936539341E0,2.038034797E-1,-1.790644646E0,6.194390297E0
2.941539341E0,1.481457949E-1,-1.965363979E0,6.229082108E0
2.946539341E0,8.427608013E-2,-2.026198626E0,6.081561089E0
2.951539341E0,5.785059929E-2,-1.935575604E0,5.667886734E0
2.956539341E0,8.496761322E-3,-1.686485291E0,4.939888000E0
2.961539341E0,-1.134122610E-1,-1.307459474E0,3.957624435E0
2.966539341E0,-2.357829809E-1,-8.668293357E-1,2.911929131E0
2.971539341E0,-2.800866365E-1,-4.480095208E-1,1.886531830E0
2.976539341E0,-2.590527534E-1,-1.520725787E-1,8.502302170E-1
2.981539341E0,-2.628104687E-1,5.935031176E-2,-1.310596466E-1
2.986539341E0,-3.055666685E-1,1.816662550E-1,-1.075021744E0
2.991539341E0,-3.441594839E-1,2.147452831E-1,-1.940789223E0
2.996539341E0,-4.435646534E-1,2.062234879E-1,-2.680704117E0
3.001539341E0,-6.124160290E-1,1.822224259E-1,-3.257156372E0
3.006539341E0,-8.191603422E-1,1.638010740E-1,-3.647960663E0
3.011539341E0,-1.015215874E0,1.634482741E-1,-3.871177673E0
3.016539341E0,-1.194492936E0,1.394314170E-1,-3.955503464E0
3.021539341E0,-1.360351205E0,7.078909874E-2,-3.915939331E0
3.026539341E0,-1.489322901E0,-2.051901817E-2,-3.761548042E0
3.031539341E0,-1.560957432E0,-1.002570987E-1,-3.541171074E0
3.036539341E0,-1.526900411E0,-1.780977845E-1,-3.253207207E0
3.041539341E0,-1.448405027E0,-2.766572833E-1,-2.926636696E0
3.046539341E0,-1.468781114E0,-5.210103989E-1,-2.534066200E0
3.051539341E0,-1.402069807E0,-7.585492134E-1,-2.185212135E0
3.056539341E0,-1.194995761E0,-9.363142252E-1,-1.920163155E0
3.061539341E0,-1.018352747E0,-1.095544338E0,-1.566992760E0
3.066539341E0,-8.924036026E-1,-1.146257877E0,-1.237489700E0
3.071539341E0,-7.903656960E-1,-1.159457207E0,-9.452600479E-1
3.076539341E0,-7.617768049E-1,-1.130480647E0,-6.915073395E-1
3.081539341E0,-7.127339840E-1,-1.077447414E0,-4.943046570E-1
3.086539341E0,-6.333988905E-1,-9.638341069E-1,-4.070539474E-1
3.091539341E0,-5.483257771E-1,-8.562307954E-1,-3.804750443E-1
3.096539341E0,-4.051378965E-1,-7.106044888E-1,-3.872652054E-1
3.101539341E0,-4.056591988E-1,-6.392309666E-1,-4.126644135E-1
3.106539341E0,-3.895756006E-1,-5.971946716E-1,-5.097570419E-1
3.111539341E0,-3.885290623E-1,-6.316926479E-1,-6.077661514E-1
3.116539341E0,-4.200030565E-1,-7.136945724E-1,-7.286005020E-1
3.121539341E0,-4.912704229E-1,-8.019418120E-1,-8.934516907E-1
3.126539341E0,-6.035255194E-1,-8.816238642E-1,-1.022196770E0
3.131539341E0,-7.235752344E-1,-9.149190187E-1,-1.197514534E0
3.136539341E0,-8.084040880E-1,-9.457255006E-1,-1.401514053E0
3.141539341E0,-8.877946138E-1,-9.431385994E-1,-1.620368958E0
3.146539341E0,-9.646056890E-1,-9.039050341E-1,-1.862967968E0
3.151539341E0,-1.013936400E0,-8.682790995E-1,-2.087196350E0
3.156539341E0,-9.949907064E-1,-8.209816217E-1,-2.300674438E0
3.161539341E0,-9.555407763E-1,-7.277633548E-1,-2.529314995E0
3.166539341E0,-8.440799713E-1,-5.954977274E-1,-2.756390572E0
3.171539341E0,-6.847271919E-1,-4.995371997E-1,-2.931693077E0
3.176539341E0,-6.022394896E-1,-3.592212796E-1,-3.020828247E0
3.181539341E0,-5.027929544E-1,-1.769336462E-1,-3.064784527E0
3.186539341E0,-3.996624947E-1,-1.933157444E-3,-3.052467823E0
3.191539341E0,-3.401964903E-1,1.526515484E-1,-3.013379097E0
3.196539341E0,-3.473646641E-1,2.632196546E-1,-2.968546867E0
3.201539341E0,-3.019225597E-1,3.470653296E-1,-2.918108463E0
3.206539341E0,-2.928521633E-1,3.881340623E-1,-2.847087860E0
3.211539341E0,-2.524551153E-1,4.073992968E-1,-2.795421124E0
3.216539341E0,-1.933478117E-1,3.890737891E-1,-2.749525547E0
3.221539341E0,-1.486117840E-1,3.301793337E-1,-2.695637703E0
3.226539341E0,-1.591321230E-1,2.412298918E-1,-2.634636402E0
3.231539341E0,-1.985112429E-1,1.438582540E-1,-2.569838524E0
3.236539341E0,-2.155803442E-1,7.751119137E-2,-2.458838463E0
3.241539341E0,-2.326704264E-1,4.008013010E-2,-2.276047230E0
3.246539341E0,-2.809571028E-1,3.187060356E-3,-2.009878159E0
3.251539341E0,-2.879444361E-1,-4.639464617E-2,-1.691757202E0
3.256539341E0,-2.663056850E-1,-8.651852608E-2,-1.349473953E0
3.261539341E0,-2.235928774E-1,-9.000599384E-2,-1.049088478E0
3.266539341E0,-1.875212193E-1,-1.219787002E-1,-7.733354568E-1
3.271539341E0,-1.869956255E-1,-1.113286614E-1,-5.461492538E-1
3.276539341E0,-2.099915743E-1,-8.834743500E-2,-3.469266891E-1
3.281539341E0,-2.194654942E-1,-5.004155636E-2,-1.832609177E-1
3.286539341E0,-2.357195616E-1,-2.192914486E-3,-8.593368530E-2
3.291539341E0,-2.837467194E-1,6.209963560E-2,-9.877681732E-2
3.296539341E0,-3.211109638E-1,1.343825459E-1,-1.467742920E-1
3.301539341E0,-3.504667282E-1,1.918763518E-1,-2.288465500E-1
3.306539341E0,-4.012889862E-1,2.579981685E-1,-3.299655914E-1
3.311539341E0,-5.479080677E-1,2.119288445E-1,-4.600744247E-1
3.316539341E0,-7.250636816E-1,1.718396544E-1,-5.492954254E-1
3.321539341E0,-8.068927526E-1,2.225549221E-1,-6.242733002E-1
3.326539341E0,-8.037042618E-1,3.318486214E-1,-6.533813477E-1
3.331539341E0,-8.126171827E-1,4.480772614E-1,-5.713729858E-1
3.336539341E0,-8.451184034E-1,5.305635333E-1,-4.831056595E-1
3.341539341E0,-8.256824017E-1,6.042724848E-1,-3.812799454E-1
3.346539341E0,-7.739171982E-1,6.251132488E-1,-2.985992432E-1
3.351539341E0,-7.196301222E-1,6.223336458E-1,-1.941967010E-1
3.356539341E0,-6.923526525E-1,5.883582830E-1,-2.871799469E-2
3.361539341E0,-6.282860041E-1,5.269777775E-1,1.396179199E-1
3.366539341E0,-5.552210808E-1,4.265546799E-1,3.582038879E-1
3.371539341E0,-5.356546640E-1,2.783901691E-1,6.782350540E-1
3.376539341E0,-5.619151592E-1,1.382596493E-1,1.007164955E0
3.381539341E0,-5.905475616E-1,1.362955570E-2,1.359840393E0
3.386539341E0,-5.649237633E-1,-1.000937223E-1,1.646980286E0
3.391539341E0,-5.539102554E-1,-1.846987009E-1,1.887245178E0
3.396539341E0,-5.321147442E-1,-2.368530035E-1,2.013061523E0
3.401539341E0,-4.535244703E-1,-2.412145138E-1,2.061875343E0
3.406539341E0,-3.415220976E-1,-2.574820518E-1,2.092141151E0
3.411539341E0,-2.314591408E-1,-2.923611403E-1,2.094945908E0
3.416539341E0,-1.069409847E-1,-3.760942221E-1,2.152026176E0
3.421539341E0,4.892468452E-3,-5.108526349E-1,2.228176117E0
3.426539341E0,4.579758644E-2,-6.971694827E-1,2.409805298E0
3.431539341E0,1.715660095E-3,-9.233506918E-1,2.715253830E0
3.436539341E0,-1.535251141E-1,-1.166224837E0,3.104376793E0
3.441539341E0,-2.948714495E-1,-1.440800428E0,3.509157181E0
3.446539341E0,-4.312376976E-1,-1.729260802E0,3.835325241E0
3.451539341E0,-5.919221640E-1,-1.992521286E0,4.102756500E0
3.456539341E0,-7.315737009E-1,-2.259709597E0,4.252655029E0
3.461539341E0,-7.791029215E-1,-2.465271473E0,4.323162079E0
3.466539341E0,-6.865085363E-1,-2.567691326E0,4.283034325E0
3.471539341E0,-5.821052790E-1,-2.581134796E0,4.100683212E0
3.476539341E0,-5.102789402E-1,-2.538005114E0,3.813606262E0
3.481539341E0,-4.980129004E-1,-2.446277618E0,3.470186234E0
3.486539341E0,-4.609616995E-1,-2.304455042E0,3.059021950E0
3.491539341E0,-3.693063259E-1,-2.140470028E0,2.589453697E0
3.496539341E0,-2.759890556E-1,-1.977940321E0,2.096055984E0
3.501539341E0,-1.836414337E-1,-1.819232821E0,1.661821365E0
3.506539341E0,-2.124583721E-2,-1.660167813E0,1.254158974E0
3.511539341E0,1.499270201E-1,-1.472567677E0,8.512182236E-1
3.516539341E0,3.486390114E-1,-1.251497149E0,4.934206009E-1
3.521539341E0,4.732397795E-1,-1.056507587E0,1.735439301E-1
3.526539341E0,6.042950153E-1,-8.792574406E-1,8.823394775E-3
3.531539341E0,7.903625965E-1,-7.278202772E-1,1.238441467E-2
3.536539341E0,9.893895388E-1,-5.493094325E-1,1.058454514E-1
3.541539341E0,1.205198646E0,-3.741470575E-1,1.647663116E-1
3.546539341E0,1.394940019E0,-2.668296695E-1,2.338361740E-1
3.551539341E0,1.570274711E0,-1.911222935E-1,3.094196320E-1
3.556539341E0,1.747286677E0,-1.468911171E-1,3.743619919E-1
3.561539341E0,1.839353561E0,-1.558621526E-1,4.343118668E-1
3.566539341E0,1.838987112E0,-2.467557490E-1,5.217590332E-1
3.571539341E0,1.787535429E0,-3.540164828E-1,5.885248184E-1
3.576539341E0,1.746640921E0,-4.512759447E-1,6.383113861E-1
3.581539341E0,1.678850770E0,-5.345964432E-1,6.691360474E-1
3.586539341E0,1.599492192E0,-6.235561371E-1,6.508378983E-1
3.591539341E0,1.488396883E0,-7.238129377E-1,5.802288055E-1
3.596539341E0,1.317995667E0,-8.339268565E-1,4.755573273E-1
3.601539341E0,1.150043249E0,-9.661838412E-1,3.219776154E-1
3.606539341E0,9.858013391E-1,-1.043138862E0,1.117897034E-1
3.611539341E0,8.537558913E-1,-1.112575412E0,-1.573677063E-1
3.616539341E0,7.476016283E-1,-1.155817151E0,-4.485073090E-1
3.621539341E0,6.209210753E-1,-1.191634417E0,-7.692260742E-1
3.626539341E0,4.946541190E-1,-1.177037954E0,-1.099063873E0
3.631539341E0,4.158099890E-1,-1.116037369E0,-1.419242859E0
3.636539341E0,4.074231386E-1,-1.027776599E0,-1.735449791E0
3.641539341E0,4.415141344E-1,-9.207493067E-1,-2.045989037E0
3.646539341E0,4.659570456E-1,-8.156425953E-1,-2.334321976E0
3.651539341E0,4.735437632E-1,-7.110663652E-1,-2.607818604E0
3.656539341E0,4.964838028E-1,-5.953596830E-1,-2.846564293E0
3.661539341E0,5.235849619E-1,-4.501195252E-1,-3.064739704E0
3.666539341E0,5.638960600E-1,-2.904102802E-1,-3.208266258E0
3.671539341E0,6.403028965E-1,-1.303838491E-1,-3.316184044E0
3.676539341E0,6.952630281E-1,-9.744882584E-3,-3.432689190E0
3.681539341E0,7.114531994E-1,1.072420478E-1,-3.545746803E0
3.686539341E0,7.236235142E-1,1.979019046E-1,-3.633117199E0
3.691539341E0,7.370953560E-1,2.618758678E-1,-3.669498444E0
3.696539341E0,7.682273388E-1,3.427083492E-1,-3.654634476E0
3.701539341E0,7.562313080E-1,3.763111830E-1,-3.603257179E0
3.706539341E0,7.602698803E-1,4.068236351E-1,-3.541197777E0
3.711539341E0,7.685461044E-1,4.489767551E-1,-3.429502487E0
3.716539341E0,7.902017832E-1,5.046117902E-1,-3.293340683E0
3.721539341E0,7.879391909E-1,5.373275876E-1,-3.105458260E0
3.726539341E0,7.961767912E-1,5.693640709E-1,-2.909538269E0
3.731539341E0,7.831614017E-1,5.889482498E-1,-2.721544266E0
3.736539341E0,7.819604874E-1,6.055157781E-1,-2.521272659E0
3.741539341E0,7.886768579E-1,5.908212066E-1,-2.312275887E0
3.746539341E0,8.138487339E-1,5.697445273E-1,-2.101226807E0
3.751539341E0,8.758236170E-1,5.523186326E-1,-1.881494999E0
3.756539341E0,9.113750458E-1,5.438780785E-1,-1.687989235E0
3.761539341E0,9.338678122E-1,5.623399615E-1,-1.503009796E0
3.766539341E0,9.343185425E-1,5.624089837E-1,-1.307306290E0
3.771539341E0,8.770745993E-1,5.515277386E-1,-1.110378265E0
3.776539341E0,8.415505886E-1,5.180169940E-1,-8.704547882E-1
3.781539341E0,8.488903046E-1,4.749251604E-1,-6.312780380E-1
3.786539341E0,8.686798811E-1,4.507331252E-1,-4.339122772E-1
3.791539341E0,8.922771811E-1,4.054019451E-1,-2.603998184E-1
3.796539341E0,8.270328045E-1,3.490628600E-1,-9.080410004E-2
3.801539341E0,7.021126747E-1,2.691418529E-1,1.103820801E-1
3.806539341E0,5.648674965E-1,1.944965124E-1,3.089084625E-1
3.811539341E0,4.690759182E-1,1.098381877E-1,4.851388931E-1
3.816539341E0,5.832177401E-1,-8.305484056E-2,6.707706451E-1
3.821539341E0,3.257062435E-1,-2.181740701E-1,8.591833115E-1
3.826539341E0,-2.082970142E-1,-2.124389112E-1,7.508363724E-1
3.831539341E0,-2.899259329E-1,-1.746457219E-1,7.550039291E-1
3.836539341E0,-3.601346016E-1,-1.899661422E-1,7.870159149E-1
3.841539341E0,-4.072775841E-1,-2.117675543E-1,7.487573624E-1
3.846539341E0,-3.602166176E-1,-2.094773054E-1,7.332773209E-1
3.851539341E0,-2.304921150E-1,-1.820493937E-1,6.980581284E-1
3.856539341E0,-7.145190239E-2,-1.448219419E-1,7.206707001E-1
3.861539341E0,9.604692459E-4,-7.777798176E-2,7.400150299E-1
3.866539341E0,-8.234775066E-2,3.816694021E-2,6.964139938E-1
3.871539341E0,-1.024409533E-1,1.140432358E-1,7.260274887E-1
3.876539341E0,-2.142112255E-1,1.658399701E-1,8.114862442E-1
3.881539341E0,-3.193522692E-1,1.912225485E-1,9.140062332E-1
3.886539341E0,-3.323448896E-1,1.251057982E-1,1.121594429E0
3.891539341E0,-3.513140678E-1,-3.194510937E-3,1.330947876E0
3.896539341E0,-3.623112440E-1,-1.738373041E-1,1.591777802E0
3.901539341E0,-4.212561846E-1,-3.407362103E-1,1.857554436E0
3.906539341E0,-5.697613955E-1,-4.571742415E-1,2.054099083E0
3.911539341E0,-7.708469629E-1,-4.538792968E-1,2.194054604E0
3.916539341E0,-9.494516850E-1,-3.463173807E-1,2.300037384E0
3.921539341E0,-1.135920763E0,-1.907787919E-1,2.392521858E0
3.926539341E0,-1.273668885E0,-2.756208181E-2,2.429140091E0
3.931539341E0,-1.308883429E0,1.586142182E-1,2.365633965E0
3.936539341E0,-1.203881264E0,3.272656202E-1,2.198836327E0
3.941539341E0,-1.010943413E0,4.928995371E-1,1.925502777E0
3.946539341E0,-7.314654589E-1,6.418271065E-1,1.590003014E0
3.951539341E0,-4.075958729E-1,7.289112210E-1,1.271401405E0
3.956539341E0,-3.354394436E-2,7.194086909E-1,1.050239563E0
3.961539341E0,3.435641527E-1,5.574548244E-1,1.020555496E0
3.966539341E0,6.098544598E-1,1.862742305E-1,1.275988579E0
3.971539341E0,6.687505245E-1,-3.414487243E-1,1.887096405E0
3.976539341E0,5.178894997E-1,-9.944716692E-1,2.674035072E0
3.981539341E0,2.652918100E-1,-1.655168772E0,3.543312073E0
3.986539341E0,-5.100464821E-2,-2.264253616E0,4.341770172E0
3.991539341E0,-4.490759373E-1,-2.768588781E0,5.023456573E0
3.996539341E0,-8.447109461E-1,-3.079213858E0,5.552597046E0
4.001539341E0,-1.140876412E0,-3.185213566E0,5.869615555E0
4.006539341E0,-1.307059765E0,-3.067623615E0,5.940476418E0
4.011539341E0,-1.317656279E0,-2.803634167E0,5.638950348E0
4.016539341E0,-1.214218855E0,-2.436190128E0,4.888994217E0
4.021539341E0,-1.046832204E0,-2.007973671E0,3.741139412E0
4.026539341E0,-8.964157104E-1,-1.537890434E0,2.476917267E0
4.031539341E0,-7.636277676E-1,-1.095908761E0,1.334393501E0
4.036539341E0,-5.845633745E-1,-6.863294840E-1,3.987016678E-1
4.041539341E0,-3.854546547E-1,-3.307865262E-1,-3.591146469E-1
4.046539341E0,-2.133034468E-1,-2.258539200E-2,-1.002335548E0
4.051539341E0,-1.192089319E-1,2.186374664E-1,-1.553379059E0
4.056539341E0,-1.131086349E-1,3.839693069E-1,-1.990191460E0
4.061539341E0,-1.355745792E-1,4.796288013E-1,-2.273270607E0
4.066539341E0,-1.567826271E-1,4.867515564E-1,-2.365885258E0
4.071539341E0,-2.171130180E-1,3.668285608E-1,-2.271206379E0
4.076539341E0,-3.215101957E-1,1.955364943E-1,-2.009380341E0
4.081539341E0,-4.353920221E-1,-3.396975994E-2,-1.609412193E0
4.086539341E0,-4.698839188E-1,-3.281549215E-1,-1.056718826E0
4.091539341E0,-4.950727224E-1,-6.477910876E-1,-5.032138824E-1
4.096539341E0,-5.216078758E-1,-9.682911634E-1,-1.477890015E-1
4.101539341E0,-5.596060753E-1,-1.225333691E0,1.210317612E-1
4.106539341E0,-5.715236664E-1,-1.393539071E0,3.180437088E-1
4.111539341E0,-6.133500338E-1,-1.503507614E0,4.337291718E-1
4.116539341E0,-6.180694103E-1,-1.569513321E0,5.191488266E-1
4.121539341E0,-6.305861473E-1,-1.597871780E0,5.011043549E-1
4.126539341E0,-6.019988060E-1,-1.571602941E0,3.790960312E-1
4.131539341E0,-5.299146175E-1,-1.503283024E0,1.320095062E-1
4.136539341E0,-4.245873690E-1,-1.381383657E0,-1.917896271E-1
4.141539341E0,-3.403326273E-1,-1.231811285E0,-5.693817139E-1
4.146539341E0,-2.720677853E-1,-1.075856209E0,-9.412326813E-1
4.151539341E0,-1.813576221E-1,-8.835167289E-1,-1.272255898E0
4.156539341E0,-1.114041805E-1,-6.881968975E-1,-1.570827484E0
4.161539341E0,-5.539405346E-2,-4.881451726E-1,-1.820700645E0
4.166539341E0,-1.746392250E-2,-3.199283481E-1,-2.035417080E0
4.171539341E0,1.232349873E-2,-1.943691373E-1,-2.256443977E0
4.176539341E0,5.020999908E-2,-8.720690012E-2,-2.494976521E0
4.181539341E0,9.652805328E-2,1.262021065E-2,-2.701583862E0
4.186539341E0,1.243522167E-1,1.074270606E-1,-2.896598339E0
4.191539341E0,1.239579916E-1,1.541647315E-1,-3.104389191E0
4.196539341E0,1.047140360E-1,2.117668986E-1,-3.274966240E0
4.201539341E0,4.300475121E-2,2.148696780E-1,-3.420618057E0
4.206539341E0,-2.118182182E-2,2.104161978E-1,-3.540034294E0
4.211539341E0,-7.875394821E-2,1.872116923E-1,-3.641192913E0
4.216539341E0,-1.066892147E-1,1.692736745E-1,-3.721802711E0
4.221539341E0,-1.503665447E-1,1.631318331E-1,-3.768144608E0
4.226539341E0,-1.659841537E-1,1.629694700E-1,-3.798813820E0
4.231539341E0,-1.708314419E-1,2.062824965E-1,-3.845389366E0
4.236539341E0,-1.657714844E-1,2.675330639E-1,-3.885840416E0
4.241539341E0,-1.391248703E-1,3.347594142E-1,-3.903667450E0
4.246539341E0,-9.550499916E-2,4.172368050E-1,-3.881263733E0
4.251539341E0,-4.997324944E-2,5.138865113E-1,-3.818717957E0
4.256539341E0,-1.614093781E-4,6.020847559E-1,-3.702997684E0
4.261539341E0,5.282139778E-2,6.887264848E-1,-3.516001225E0
4.266539341E0,1.117987633E-1,7.535231709E-1,-3.288014889E0
4.271539341E0,9.892797470E-2,7.934630513E-1,-3.005589485E0
4.276539341E0,6.857657433E-2,7.876348495E-1,-2.698274612E0
4.281539341E0,-5.961656570E-3,7.377604842E-1,-2.411785126E0
4.286539341E0,-1.231284142E-1,6.444953084E-1,-2.100436211E0
4.291539341E0,-3.194394112E-1,4.759700894E-1,-1.738447666E0
4.296539341E0,-6.002762318E-1,2.621373534E-1,-1.297726631E0
4.301539341E0,-8.863508701E-1,-3.441101313E-2,-8.674201965E-1
4.306539341E0,-1.109382153E0,-3.743727803E-1,-5.308637619E-1
4.311539341E0,-1.230412006E0,-6.699103713E-1,-2.631168365E-1
4.316539341E0,-1.317915916E0,-8.581844568E-1,-7.393932343E-2
4.321539341E0,-1.386979103E0,-9.454698563E-1,3.681945801E-2
4.326539341E0,-1.428991318E0,-9.389487505E-1,7.746410370E-2
4.331539341E0,-1.435280085E0,-8.822965622E-1,8.999252319E-2
4.336539341E0,-1.382206440E0,-7.510329485E-1,7.220172882E-2
4.341539341E0,-1.300751925E0,-5.548899770E-1,6.136131287E-2
4.346539341E0,-1.224802971E0,-3.298417926E-1,5.038070679E-2
4.351539341E0,-1.142499685E0,-8.178079128E-2,7.941246033E-2
4.356539341E0,-1.061496258E0,1.478427649E-1,1.347770691E-1
4.361539341E0,-1.019719839E0,3.176158071E-1,1.981763840E-1
4.366539341E0,-9.609463215E-1,3.709745407E-1,3.136758804E-1
4.371539341E0,-8.847455978E-1,3.365105391E-1,4.880456924E-1
4.376539341E0,-8.875855207E-1,2.098734975E-1,7.321872711E-1
4.381539341E0,-9.005373716E-1,4.009318352E-2,1.017966270E0
4.386539341E0,-9.021610022E-1,-1.439381540E-1,1.309397697E0
4.391539341E0,-8.746036291E-1,-3.391191363E-1,1.612834930E0
4.396539341E0,-8.501564264E-1,-5.298536420E-1,1.859233856E0
4.401539341E0,-8.259910345E-1,-7.482854128E-1,2.077438354E0
4.406539341E0,-8.383276463E-1,-9.732927680E-1,2.345478058E0
4.411539341E0,-8.885185719E-1,-1.191565037E0,2.626397133E0
4.416539341E0,-9.252114296E-1,-1.344469905E0,2.877710342E0
4.421539341E0,-9.842679501E-1,-1.434698820E0,3.057375908E0
4.426539341E0,-1.066816211E0,-1.407867193E0,3.133538246E0
4.431539341E0,-1.161721110E0,-1.247807980E0,3.210128784E0
4.436539341E0,-1.209952593E0,-9.755412340E-1,3.158089638E0
4.441539341E0,-1.122520328E0,-6.325999498E-1,3.013829231E0
4.446539341E0,-9.412806034E-1,-3.112753630E-1,2.750114441E0
4.451539341E0,-7.385743856E-1,-1.121231914E-2,2.473514557E0
4.456539341E0,-5.142451525E-1,2.401897907E-1,2.207357407E0
4.461539341E0,-2.746655941E-1,4.774649441E-1,1.985393524E0
4.466539341E0,1.600849628E-2,6.628093123E-1,1.812018394E0
4.471539341E0,2.754511833E-1,7.327893972E-1,1.731564522E0
4.476539341E0,4.662576914E-1,6.727957726E-1,1.736295700E0
4.481539341E0,5.433644056E-1,5.024756193E-1,1.848673820E0
4.486539341E0,5.569003820E-1,2.662211955E-1,2.050559044E0
4.491539341E0,4.410110712E-1,-9.387549758E-2,2.353135109E0
4.496539341E0,2.709535360E-1,-5.071923733E-1,2.701442719E0
4.501539341E0,1.306393147E-1,-8.986920118E-1,3.001417160E0
4.506539341E0,-1.559066772E-2,-1.207655668E0,3.215314865E0
4.511539341E0,-1.430945396E-1,-1.470325828E0,3.376317978E0
4.516539341E0,-1.893706322E-1,-1.632133245E0,3.468768120E0
4.521539341E0,-1.423387527E-1,-1.659803271E0,3.459475517E0
4.526539341E0,-4.364085197E-2,-1.499521613E0,3.351093292E0
4.531539341E0,9.644162655E-2,-1.206998825E0,3.104428291E0
4.536539341E0,2.540206909E-1,-8.749327660E-1,2.703143120E0
4.541539341E0,3.846961260E-1,-5.530785322E-1,2.130861282E0
4.546539341E0,5.168191195E-1,-3.064578772E-1,1.460946083E0
4.551539341E0,6.720755100E-1,-1.246735379E-1,8.038768768E-1
4.556539341E0,8.425506353E-1,-1.881033182E-3,2.378759384E-1
4.561539341E0,9.812155962E-1,9.526905417E-2,-1.711006165E-1
4.566539341E0,1.029225588E0,1.428367496E-1,-4.281883240E-1
4.571539341E0,1.007980585E0,1.418135911E-1,-5.703735352E-1
4.576539341E0,9.373246431E-1,7.278813422E-2,-6.295251846E-1
4.581539341E0,8.880610466E-1,-1.255103946E-2,-6.381034851E-1
4.586539341E0,8.406274319E-1,-1.168332994E-1,-5.587568283E-1
4.591539341E0,7.978771925E-1,-2.274515033E-1,-4.088134766E-1
4.596539341E0,8.006286621E-1,-3.365221322E-1,-2.299270630E-1
4.601539341E0,7.976859212E-1,-4.239803851E-1,-3.131008148E-2
4.606539341E0,7.961357236E-1,-4.971002936E-1,1.943445206E-1
4.611539341E0,7.877120972E-1,-5.657142401E-1,4.576854706E-1
4.616539341E0,7.682475448E-1,-6.651976705E-1,7.215614319E-1
4.621539341E0,7.502881289E-1,-7.738323808E-1,9.539623260E-1
4.626539341E0,7.269127369E-1,-9.030602574E-1,1.134260178E0
4.631539341E0,6.947885752E-1,-9.864605665E-1,1.194252968E0
4.636539341E0,6.490261555E-1,-1.035296679E0,1.145956993E0
4.641539341E0,5.786279440E-1,-1.050878644E0,1.002250671E0
4.646539341E0,5.015753508E-1,-1.049731731E0,7.597208023E-1
4.651539341E0,4.441661835E-1,-1.030531049E0,4.579896927E-1
4.656539341E0,4.102340937E-1,-1.024659276E0,9.261894226E-2
4.661539341E0,3.655306697E-1,-1.011362076E0,-2.878780365E-1
4.666539341E0,2.971483469E-1,-1.003857851E0,-6.320667267E-1
4.671539341E0,2.155401707E-1,-9.641759396E-1,-9.401655197E-1
4.676539341E0,1.424098015E-1,-8.964160681E-1,-1.227672577E0
4.681539341E0,9.154760838E-2,-8.377249241E-1,-1.501466751E0
4.686539341E0,4.687643051E-2,-7.714922428E-1,-1.780395985E0
4.691539341E0,-3.060257435E-2,-7.015997767E-1,-2.056696892E0
4.696539341E0,-7.845723629E-2,-6.363136768E-1,-2.277687073E0
4.701539341E0,-9.094989300E-2,-5.636286736E-1,-2.474554539E0
4.706539341E0,-8.781147003E-2,-4.943621755E-1,-2.673625946E0
4.711539341E0,-8.993041515E-2,-4.516437650E-1,-2.849122047E0
4.716539341E0,-9.113860130E-2,-4.178142548E-1,-3.030234337E0
4.721539341E0,-9.682166576E-2,-3.934347630E-1,-3.179388046E0
4.726539341E0,-1.006903648E-1,-3.594817817E-1,-3.280896664E0
4.731539341E0,-5.757474899E-2,-3.096578717E-1,-3.337061882E0
4.736539341E0,-3.982949257E-2,-2.411826253E-1,-3.378859520E0
4.741539341E0,1.323127747E-2,-1.623113751E-1,-3.446885109E0
4.746539341E0,9.020340443E-2,-8.035939932E-2,-3.500703812E0
4.751539341E0,1.829216480E-1,2.279993892E-2,-3.537714958E0
4.756539341E0,2.861386538E-1,1.372916400E-1,-3.541664600E0
4.761539341E0,3.992818594E-1,2.863991857E-1,-3.510502815E0
4.766539341E0,5.559833050E-1,4.779823422E-1,-3.446419716E0
4.771539341E0,7.203333378E-1,7.106770873E-1,-3.375837326E0
4.776539341E0,9.167268276E-1,9.747853875E-1,-3.287838936E0
4.781539341E0,1.054094195E0,1.205007792E0,-3.197688103E0
4.786539341E0,1.128155947E0,1.371655703E0,-3.072152138E0
4.791539341E0,1.187653899E0,1.506154776E0,-2.906044006E0
4.796539341E0,1.195672274E0,1.575985193E0,-2.724816322E0
4.801539341E0,1.206566334E0,1.589084864E0,-2.499156952E0
4.806539341E0,1.152451515E0,1.539880276E0,-2.243682384E0
4.811539341E0,1.096501827E0,1.458370328E0,-2.037574768E0
4.816539341E0,9.866195917E-1,1.287354231E0,-1.798621178E0
4.821539341E0,8.075735569E-1,1.087864041E0,-1.563179016E0
4.826539341E0,6.055710316E-1,8.591646552E-1,-1.296748161E0
4.831539341E0,4.081766605E-1,6.292827129E-1,-9.945964813E-1
4.836539341E0,2.636764050E-1,4.214181304E-1,-6.531286240E-1
4.841539341E0,9.434092045E-2,2.357179523E-1,-2.863836288E-1
4.846539341E0,-8.944642544E-2,9.189456701E-2,6.550788879E-2
4.851539341E0,-2.448585033E-1,-1.650536060E-2,3.880586624E-1
4.856539341E0,-3.848867416E-1,-8.764964342E-2,6.979169846E-1
4.861539341E0,-4.766232967E-1,-1.159418225E-1,9.798221588E-1
4.866539341E0,-5.165235996E-1,-9.732648730E-2,1.245049477E0
4.871539341E0,-5.376659632E-1,-4.300719500E-2,1.445518494E0
4.876539341E0,-5.385460854E-1,-2.311420441E-2,1.901148796E0
4.881539341E0,-5.494294167E-1,-2.682471275E-2,2.419303894E0
4.886539341E0,-3.024139404E-1,2.943283319E-1,1.716127396E0
4.891539341E0,-6.648612022E-2,4.802992940E-1,1.380661011E0
4.896539341E0,3.110682964E-2,5.227451921E-1,1.602194786E0
4.901539341E0,-5.296099186E-2,5.536918044E-1,1.932957649E0
4.906539341E0,-1.421676874E-1,5.943626761E-1,1.937273979E0
4.911539341E0,-1.826434135E-1,5.568222404E-1,1.757381439E0
4.916539341E0,-3.082827330E-1,4.737925529E-1,1.701474190E0
4.921539341E0,-4.503129721E-1,3.638306260E-1,1.716616631E0
4.926539341E0,-5.644187927E-1,2.257624269E-1,1.781571388E0
4.931539341E0,-6.927089691E-1,7.749027014E-2,1.835627556E0
4.936539341E0,-8.620595932E-1,-1.025541425E-1,1.914489746E0
4.941539341E0,-1.001487851E0,-2.803661823E-1,1.994026184E0
4.946539341E0,-1.085245013E0,-4.145578742E-1,2.082380295E0
4.951539341E0,-1.161636710E0,-4.873696864E-1,2.211953163E0
4.956539341E0,-1.285486460E0,-4.500868022E-1,2.321788788E0
4.961539341E0,-1.406178236E0,-3.484975696E-1,2.344067574E0
4.966539341E0,-1.474218369E0,-1.934233308E-1,2.224425316E0
4.971539341E0,-1.460420251E0,-3.867632151E-2,2.049461365E0
4.976539341E0,-1.388788819E0,9.815913439E-2,1.820000648E0
4.981539341E0,-1.224324822E0,1.533514857E-1,1.569907188E0
4.986539341E0,-1.016783357E0,1.249793172E-1,1.383362770E0
4.991539341E0,-7.807084322E-1,-1.027536392E-2,1.294268608E0
4.996539341E0,-5.424729586E-1,-2.123396397E-1,1.326996803E0
5.001539341E0,-4.646751881E-1,-5.785126090E-1,1.577426910E0
5.006539341E0,-5.632269382E-1,-9.887138605E-1,1.992210388E0
5.011539341E0,-7.084730864E-1,-1.319939733E0,2.525267601E0
5.016539341E0,-8.883144855E-1,-1.560744882E0,3.099855423E0
5.021539341E0,-1.138254285E0,-1.697340965E0,3.597720146E0
5.026539341E0,-1.382688046E0,-1.749203682E0,3.802935600E0
5.031539341E0,-1.616302371E0,-1.744979382E0,3.675499916E0
5.036539341E0,-1.797784448E0,-1.659893036E0,3.256977081E0
5.041539341E0,-1.803941607E0,-1.493921518E0,2.554174423E0
5.046539341E0,-1.704537511E0,-1.258473635E0,1.778444290E0
5.051539341E0,-1.554862738E0,-9.904963970E-1,1.077612877E0
5.056539341E0,-1.387603521E0,-7.179374695E-1,4.825353622E-1
5.061539341E0,-1.240132689E0,-5.111443996E-1,-3.254508972E-2
5.066539341E0,-1.091236711E0,-3.410946131E-1,-4.893665314E-1
5.071539341E0,-9.653049707E-1,-2.136818171E-1,-8.391790390E-1
5.076539341E0,-8.801814318E-1,-1.404131055E-1,-1.066489220E0
5.081539341E0,-8.622624874E-1,-8.943843842E-2,-1.181352615E0
5.086539341E0,-8.801982403E-1,-5.063068867E-2,-1.168135643E0
5.091539341E0,-8.795267344E-1,2.898454666E-3,-9.926986694E-1
5.096539341E0,-9.040676355E-1,4.720199108E-2,-6.907730103E-1
5.101539341E0,-8.635807037E-1,5.798470974E-2,-3.322248459E-1
5.106539341E0,-8.418971300E-1,2.256858349E-2,2.274322510E-2
5.111539341E0,-8.573467731E-1,-8.276361227E-2,3.074436188E-1
5.116539341E0,-8.762719631E-1,-2.279360890E-1,4.506530762E-1
5.121539341E0,-8.772702217E-1,-3.926779032E-1,5.351905823E-1
5.126539341E0,-8.605104685E-1,-5.501227379E-1,6.254758835E-1
5.131539341E0,-8.477073908E-1,-6.989815235E-1,7.047386169E-1
5.136539341E0,-8.225436211E-1,-8.537948132E-1,7.700481415E-1
5.141539341E0,-7.973858118E-1,-1.016857147E0,7.924747467E-1
5.146539341E0,-7.759286165E-1,-1.159212232E0,8.137321472E-1
5.151539341E0,-7.339755297E-1,-1.241700292E0,7.929334641E-1
5.156539341E0,-6.816257238E-1,-1.279977322E0,7.058906555E-1
5.161539341E0,-6.100546122E-1,-1.205273867E0,5.604820251E-1
5.166539341E0,-5.652728081E-1,-1.071631432E0,3.472509384E-1
5.171539341E0,-5.281194448E-1,-9.331628084E-1,9.808063507E-2
5.176539341E0,-4.935581684E-1,-8.015415072E-1,-1.909894943E-1
5.181539341E0,-4.332273006E-1,-7.403973341E-1,-4.958248138E-1
5.186539341E0,-3.758220673E-1,-6.853713393E-1,-7.756147385E-1
5.191539341E0,-3.773884773E-1,-6.562212706E-1,-1.110528946E0
5.196539341E0,-4.186270237E-1,-6.202090979E-1,-1.441027641E0
5.201539341E0,-4.589825869E-1,-5.876053572E-1,-1.732665539E0
5.206539341E0,-4.938616753E-1,-5.718893409E-1,-1.970026493E0
5.211539341E0,-5.221711397E-1,-5.758947134E-1,-2.190264702E0
5.216539341E0,-5.293899775E-1,-6.003686190E-1,-2.384029388E0
5.221539341E0,-5.201286077E-1,-6.491892934E-1,-2.564684868E0
5.226539341E0,-5.494353771E-1,-6.478782296E-1,-2.706547737E0
5.231539341E0,-5.839260817E-1,-6.218327880E-1,-2.841582298E0
5.236539341E0,-5.678883791E-1,-5.827649832E-1,-2.970270634E0
5.241539341E0,-5.133334398E-1,-5.378743410E-1,-3.121065140E0
5.246539341E0,-4.680303335E-1,-4.683088064E-1,-3.176917076E0
5.251539341E0,-4.334082603E-1,-3.928518891E-1,-3.284380436E0
5.256539341E0,-3.181184530E-1,-2.874788046E-1,-3.420648575E0
5.261539341E0,-1.738924980E-1,-1.582225561E-1,-3.466330528E0
5.266539341E0,-6.697142124E-2,-6.225109100E-3,-3.477953911E0
5.271539341E0,-1.288402081E-2,1.366908550E-1,-3.450285912E0
5.276539341E0,7.173240185E-2,2.495668530E-1,-3.363243103E0
5.281539341E0,1.511694193E-1,3.326427341E-1,-3.234892368E0
5.286539341E0,1.755170822E-1,3.903254867E-1,-3.106678963E0
5.291539341E0,1.562286615E-1,4.204577208E-1,-2.941382408E0
5.296539341E0,1.480571032E-1,4.666936994E-1,-2.772956848E0
5.301539341E0,1.400403976E-1,4.696854949E-1,-2.605946541E0
5.306539341E0,7.083570957E-2,4.681901336E-1,-2.431057453E0
5.311539341E0,-6.165266037E-3,4.167641997E-1,-2.208754539E0
5.316539341E0,-7.744085789E-2,3.470702767E-1,-1.962076187E0
5.321539341E0,-1.526528597E-1,2.739771008E-1,-1.734793663E0
5.326539341E0,-2.283914089E-1,1.852499843E-1,-1.533403397E0
5.331539341E0,-3.163348436E-1,1.010571122E-1,-1.330867767E0
5.336539341E0,-4.543318748E-1,1.147633791E-2,-1.131834984E0
5.341539341E0,-6.214548349E-1,-3.697520494E-2,-9.074106216E-1
5.346539341E0,-7.525351048E-1,-6.823199987E-2,-6.838092804E-1
5.351539341E0,-8.719171286E-1,-7.948535681E-2,-5.062580109E-1
5.356539341E0,-7.866655588E-1,-1.024304032E-1,-4.023056030E-1
5.361539341E0,-8.547322750E-1,-1.358908415E-1,-3.091411591E-1
5.366539341E0,-8.617355824E-1,-1.517444849E-1,-2.029581070E-1
5.371539341E0,-7.910509109E-1,-1.799531579E-1,-3.810310364E-2
5.376539341E0,-6.908175945E-1,-2.204051018E-1,1.455726624E-1
5.381539341E0,-5.894421339E-1,-2.806032896E-1,2.867374420E-1
5.386539341E0,-5.661290884E-1,-3.243082762E-1,4.375076294E-1
5.391539341E0,-5.590251684E-1,-3.710660338E-1,6.082954407E-1
5.396539341E0,-5.114045143E-1,-4.156251550E-1,8.018178940E-1
5.401539341E0,-4.797755480E-1,-4.778630733E-1,1.019285202E0
5.406539341E0,-4.917169809E-1,-5.576894283E-1,1.281563759E0
5.411539341E0,-5.087840557E-1,-6.641593575E-1,1.524819374E0
5.416539341E0,-5.675516129E-1,-7.778154016E-1,1.717458725E0
5.421539341E0,-6.521346569E-1,-8.872585297E-1,1.908649445E0
5.426539341E0,-7.407454252E-1,-8.980348110E-1,2.048810005E0
5.431539341E0,-8.589266539E-1,-7.875678539E-1,2.129325867E0
5.436539341E0,-9.389290810E-1,-5.140334964E-1,2.100652695E0
5.441539341E0,-9.622700214E-1,-1.282824278E-1,1.963220596E0
5.446539341E0,-9.648525715E-1,2.969917059E-1,1.676605225E0
5.451539341E0,-8.869266510E-1,7.313797474E-1,1.310289383E0
5.456539341E0,-7.611520290E-1,1.069013476E0,9.397678375E-1
5.461539341E0,-5.637346506E-1,1.265188813E0,6.135110855E-1
5.466539341E0,-2.792971134E-1,1.290681958E0,3.509206772E-1
5.471539341E0,7.569313049E-3,1.172291636E0,2.683086395E-1
5.476539341E0,3.514921665E-1,9.342268705E-1,3.122997284E-1
5.481539341E0,6.853094697E-1,5.818414688E-1,5.233373642E-1
5.486539341E0,8.617776036E-1,1.296591759E-1,9.396963120E-1
5.491539341E0,8.390672207E-1,-3.908169866E-1,1.522603989E0
5.496539341E0,6.143066883E-1,-9.603939056E-1,2.341578484E0
5.501539341E0,3.006823063E-1,-1.520823836E0,3.230345726E0
5.506539341E0,-4.817795753E-2,-2.001719952E0,3.950723648E0
5.511539341E0,-4.683029652E-1,-2.380612135E0,4.391251564E0
5.516539341E0,-9.731177092E-1,-2.615384102E0,4.713196754E0
5.521539341E0,-1.396498680E0,-2.669974566E0,4.874469757E0
5.526539341E0,-1.688089490E0,-2.566435814E0,4.795276642E0
5.531539341E0,-1.773048520E0,-2.393233299E0,4.470297813E0
5.536539341E0,-1.637921333E0,-2.144921780E0,3.851522446E0
5.541539341E0,-1.469043851E0,-1.863068938E0,2.956863403E0
5.546539341E0,-1.237516522E0,-1.551395655E0,1.983053207E0
5.551539341E0,-9.943134785E-1,-1.219548941E0,1.064260483E0
5.556539341E0,-7.582212687E-1,-9.003506899E-1,2.872877121E-1
5.561539341E0,-5.856207609E-1,-6.079480648E-1,-3.246650696E-1
5.566539341E0,-4.157516956E-1,-4.107972383E-1,-7.562866211E-1
5.571539341E0,-2.025449276E-1,-2.584379315E-1,-1.049337387E0
5.576539341E0,-2.229607105E-2,-1.442258358E-1,-1.180438995E0
5.581539341E0,6.156158447E-2,-7.232880592E-2,-1.140467644E0
5.586539341E0,1.008393764E-1,-5.637776852E-2,-9.290790558E-1
5.591539341E0,1.121817827E-1,-1.060451269E-1,-5.736398697E-1
5.596539341E0,7.528460026E-2,-2.326827049E-1,-1.473751068E-1
5.601539341E0,7.742404938E-3,-4.236028194E-1,2.988119125E-1
5.606539341E0,-5.690085888E-2,-6.933360100E-1,6.497793198E-1
5.611539341E0,-6.275165081E-2,-9.980601072E-1,9.303636551E-1
5.616539341E0,-5.409705639E-2,-1.283707142E0,1.188615799E0
5.621539341E0,-1.176321507E-1,-1.469946623E0,1.393759727E0
5.626539341E0,-1.872769594E-1,-1.554791212E0,1.587770462E0
5.631539341E0,-2.429937124E-1,-1.577882171E0,1.716176987E0
5.636539341E0,-2.615543604E-1,-1.589593887E0,1.774385452E0
5.641539341E0,-2.717245817E-1,-1.539895415E0,1.790304184E0
5.646539341E0,-2.720695734E-1,-1.464803457E0,1.771898270E0
5.651539341E0,-2.422602177E-1,-1.305147290E0,1.681297302E0
5.656539341E0,-1.654208899E-1,-1.098549247E0,1.458531380E0
5.661539341E0,-1.139760017E-1,-8.843588829E-1,1.107856750E0
5.666539341E0,-1.137259007E-1,-6.972985268E-1,5.721302032E-1
5.671539341E0,-1.499574184E-1,-5.745418072E-1,-3.373241425E-2
5.676539341E0,-2.052642107E-1,-4.808385670E-1,-6.456298828E-1
5.681539341E0,-2.869039774E-1,-3.837499022E-1,-1.160608292E0
5.686539341E0,-3.493301868E-1,-2.973245978E-1,-1.651125908E0
5.691539341E0,-4.162714481E-1,-2.391661406E-1,-2.072034836E0
5.696539341E0,-5.029807091E-1,-1.905248165E-1,-2.465159416E0
5.701539341E0,-5.550364256E-1,-1.782493591E-1,-2.856793404E0
5.706539341E0,-6.008883715E-1,-1.607265472E-1,-3.195874214E0
5.711539341E0,-6.349419355E-1,-1.679550409E-1,-3.508795738E0
5.716539341E0,-6.678161621E-1,-1.839745045E-1,-3.749637604E0
5.721539341E0,-6.899863482E-1,-1.909072399E-1,-3.917561531E0
5.726539341E0,-6.855013371E-1,-1.596246362E-1,-4.032579899E0
5.731539341E0,-6.633325815E-1,-9.471642971E-2,-4.054619789E0
5.736539341E0,-6.208232641E-1,-1.917803288E-2,-4.025257111E0
5.741539341E0,-6.041723490E-1,6.600952148E-2,-3.921525478E0
5.746539341E0,-4.990857840E-1,1.897069216E-1,-3.713627815E0
5.751539341E0,-3.635524511E-1,3.481613398E-1,-3.428636551E0
5.756539341E0,-2.341061831E-1,5.205446482E-1,-3.136002064E0
5.761539341E0,-1.118835211E-1,6.822476387E-1,-2.848955154E0
5.766539341E0,2.016901970E-2,8.291860819E-1,-2.618075371E0
5.771539341E0,1.917443275E-1,9.863176346E-1,-2.447721481E0
5.776539341E0,3.282163143E-1,1.131465316E0,-2.304029465E0
5.781539341E0,3.406513929E-1,1.214437842E0,-2.200157166E0
5.786539341E0,2.907639742E-1,1.228183866E0,-2.081259727E0
5.791539341E0,2.282043695E-1,1.176007628E0,-1.953536034E0
5.796539341E0,1.604014635E-1,1.075314760E0,-1.842606544E0
5.801539341E0,8.572900295E-2,9.112082720E-1,-1.742320538E0
5.806539341E0,-6.643974781E-2,7.455798388E-1,-1.646786690E0
5.811539341E0,-1.835262775E-1,5.148271322E-1,-1.532704353E0
5.816539341E0,-2.916362286E-1,3.093783855E-1,-1.392691612E0
5.821539341E0,-4.530584812E-1,1.185790300E-1,-1.201268196E0
5.826539341E0,-6.097818613E-1,-3.810548782E-2,-1.010329247E0
5.831539341E0,-7.406313419E-1,-1.852279902E-1,-7.845439911E-1
5.836539341E0,-8.561053276E-1,-2.973941565E-1,-6.051883698E-1
5.841539341E0,-9.559094906E-1,-3.640816212E-1,-4.223718643E-1
5.846539341E0,-1.081066132E0,-4.063437581E-1,-2.677354813E-1
5.851539341E0,-1.166768789E0,-4.497264624E-1,-1.196212769E-1
5.856539341E0,-1.287807822E0,-5.053264499E-1,1.038932800E-2
5.861539341E0,-1.379927039E0,-5.196563005E-1,1.290388107E-1
5.866539341E0,-1.418524861E0,-5.318973064E-1,1.638231277E-1
5.871539341E0,-1.476930618E0,-5.542693138E-1,1.674919128E-1
5.876539341E0,-1.550103068E0,-5.736492872E-1,1.755161285E-1
5.881539341E0,-1.587462544E0,-5.981755257E-1,1.749734879E-1
5.886539341E0,-1.570947647E0,-5.893269777E-1,1.764678955E-1
5.891539341E0,-1.549229741E0,-5.481673479E-1,1.784048080E-1
5.896539341E0,-1.560653806E0,-5.011328459E-1,2.143878937E-1
5.901539341E0,-1.558180809E0,-4.382991791E-1,2.621154785E-1
5.906539341E0,-1.578494310E0,-4.367047548E-1,3.191213608E-1
5.911539341E0,-1.616408706E0,-4.186142683E-1,4.197092056E-1
5.916539341E0,-1.609276295E0,-4.329098463E-1,5.043878555E-1
5.921539341E0,-1.642755151E0,-4.919853210E-1,6.258115768E-1
5.926539341E0,-1.694834113E0,-5.967508554E-1,8.170108795E-1
5.931539341E0,-1.783730507E0,-7.206242085E-1,1.101219177E0
5.936539341E0,-1.919807434E0,-8.056477904E-1,1.411908150E0
5.941539341E0,-2.144096375E0,-8.354347944E-1,1.721209526E0
5.946539341E0,-2.397738934E0,-7.488034964E-1,2.001072884E0
5.951539341E0,-2.610205412E0,-5.625215769E-1,2.075318336E0
5.956539341E0,-2.767809391E0,-3.444539309E-1,1.967019081E0
5.961539341E0,-2.880773544E0,-9.561192989E-2,1.739162445E0
5.966539341E0,-2.860788345E0,1.233506203E-1,1.417365074E0
5.971539341E0,-2.689166546E0,2.333142757E-1,1.099459648E0
5.976539341E0,-2.439477921E0,1.519000530E-1,8.526306152E-1
5.981539341E0,-2.129793406E0,-1.505018473E-1,7.902336121E-1
5.986539341E0,-1.832831502E0,-6.292437315E-1,9.659957886E-1
5.991539341E0,-1.729307413E0,-1.171535969E0,1.456215858E0
5.996539341E0,-1.873142958E0,-1.766202331E0,2.087365150E0
6.001539341E0,-2.142874002E0,-2.239640474E0,2.892906189E0
6.006539341E0,-2.558039188E0,-2.504006386E0,3.529035568E0
6.011539341E0,-2.961690426E0,-2.555800438E0,3.956209183E0
6.016539341E0,-3.376317501E0,-2.527603865E0,4.166872025E0
6.021539341E0,-3.797347546E0,-2.460346699E0,4.174758911E0
6.026539341E0,-4.083692551E0,-2.317584515E0,3.962249756E0
6.031539341E0,-4.195404053E0,-2.137991667E0,3.510166168E0
6.036539341E0,-4.126595497E0,-1.938752890E0,2.707773209E0
6.041539341E0,-3.912845373E0,-1.725346565E0,1.777660370E0
6.046539341E0,-3.635532856E0,-1.498032689E0,8.532485962E-1
6.051539341E0,-3.418428183E0,-1.274374843E0,7.835483551E-2
6.056539341E0,-3.252264023E0,-1.096636057E0,-5.710048676E-1
6.061539341E0,-3.105975628E0,-9.622499943E-1,-1.073581696E0
6.066539341E0,-3.007249355E0,-8.579599857E-1,-1.425821304E0
6.071539341E0,-2.955354214E0,-7.924832106E-1,-1.587045670E0
6.076539341E0,-2.979119062E0,-7.972645164E-1,-1.572242737E0
6.081539341E0,-2.963155270E0,-8.544276953E-1,-1.416055679E0
6.086539341E0,-2.889517546E0,-9.174985886E-1,-1.072917938E0
6.091539341E0,-2.822146654E0,-1.016077518E0,-6.119117737E-1
6.096539341E0,-2.744549274E0,-1.181435585E0,-9.461498260E-2
6.101539341E0,-2.650521994E0,-1.365706682E0,3.113307953E-1
6.106539341E0,-2.560845852E0,-1.618165493E0,5.657596588E-1
6.111539341E0,-2.493368387E0,-1.849747419E0,7.711238861E-1
6.116539341E0,-2.432227850E0,-2.035592318E0,9.689188004E-1
6.121539341E0,-2.358642340E0,-2.152402639E0,1.133795738E0
6.126539341E0,-2.296086311E0,-2.207806587E0,1.308540344E0
6.131539341E0,-2.222768545E0,-2.199842215E0,1.383837700E0
6.136539341E0,-2.119564056E0,-2.130133629E0,1.369601250E0
6.141539341E0,-2.042851925E0,-2.018680573E0,1.305714607E0
6.146539341E0,-1.956292510E0,-1.876457691E0,1.180429459E0
6.151539341E0,-1.866637707E0,-1.716063499E0,9.973688126E-1
6.156539341E0,-1.748749852E0,-1.573113203E0,7.383594513E-1
6.161539341E0,-1.659372091E0,-1.437094212E0,4.334383011E-1
6.166539341E0,-1.615257978E0,-1.314032674E0,8.459281921E-2
6.171539341E0,-1.565912008E0,-1.212122679E0,-2.649364471E-1
6.176539341E0,-1.532102823E0,-1.131912827E0,-5.931415558E-1
6.181539341E0,-1.518114805E0,-1.052987099E0,-8.962106705E-1
6.186539341E0,-1.516140223E0,-9.845669866E-1,-1.178884506E0
6.191539341E0,-1.518095136E0,-9.411095381E-1,-1.438424110E0
6.196539341E0,-1.535215139E0,-8.837157488E-1,-1.670265675E0
6.201539341E0,-1.554659843E0,-8.267332315E-1,-1.900865555E0
6.206539341E0,-1.582055449E0,-7.920127511E-1,-2.130080223E0
6.211539341E0,-1.608980775E0,-7.641474009E-1,-2.322847366E0
6.216539341E0,-1.602525234E0,-7.342617512E-1,-2.501641750E0
6.221539341E0,-1.575676203E0,-7.214893103E-1,-2.639799118E0
6.226539341E0,-1.557460427E0,-7.338713408E-1,-2.767993927E0
6.231539341E0,-1.517247438E0,-7.759282589E-1,-2.813084602E0
6.236539341E0,-1.497802377E0,-8.296149969E-1,-2.812660694E0
6.241539341E0,-1.455034018E0,-8.840981722E-1,-2.724987030E0
6.246539341E0,-1.415130258E0,-9.139328003E-1,-2.591225624E0
6.251539341E0,-1.340558171E0,-8.936233521E-1,-2.401140213E0
6.256539341E0,-1.219051242E0,-8.122831583E-1,-2.173120022E0
6.261539341E0,-1.081928849E0,-7.045195699E-1,-1.950739384E0
6.266539341E0,-9.587023258E-1,-5.864737034E-1,-1.741441727E0
6.271539341E0,-8.660258055E-1,-4.910628796E-1,-1.589087486E0
6.276539341E0,-7.934105396E-1,-4.171587229E-1,-1.424255371E0
6.281539341E0,-7.210927010E-1,-3.661807775E-1,-1.278938293E0
6.286539341E0,-6.063840389E-1,-3.466560841E-1,-1.159535408E0
6.291539341E0,-5.086946487E-1,-3.659762144E-1,-1.040125847E0
6.296539341E0,-4.657613039E-1,-4.028365612E-1,-9.491796494E-1
6.301539341E0,-4.411851168E-1,-4.845741987E-1,-8.191452026E-1
6.306539341E0,-4.665927887E-1,-5.851860046E-1,-6.860694885E-1
6.311539341E0,-4.719473124E-1,-6.826629639E-1,-5.670423508E-1
6.316539341E0,-4.550561905E-1,-7.705013156E-1,-4.534301758E-1
6.321539341E0,-4.607723951E-1,-8.653156161E-1,-3.549089432E-1
6.326539341E0,-5.015811920E-1,-9.751347899E-1,-2.649211884E-1
6.331539341E0,-5.458960533E-1,-1.081919909E0,-1.940364838E-1
6.336539341E0,-5.493932962E-1,-1.188850164E0,-1.284952164E-1
6.341539341E0,-5.519340038E-1,-1.279368997E0,-1.013231277E-1
6.346539341E0,-5.431931019E-1,-1.359163284E0,-3.775596619E-2
6.351539341E0,-5.151610374E-1,-1.400000811E0,3.740215302E-2
6.356539341E0,-4.903966188E-1,-1.380133390E0,1.365041733E-1
6.361539341E0,-5.085523129E-1,-1.289854407E0,2.059888840E-1
6.366539341E0,-5.681340694E-1,-1.186440229E0,2.859506607E-1
6.371539341E0,-5.743284225E-1,-1.089172840E0,3.060064316E-1
6.376539341E0,-5.795657635E-1,-9.994323254E-1,2.949151993E-1
6.381539341E0,-5.523667336E-1,-9.203090668E-1,2.318220139E-1
6.386539341E0,-4.396758080E-1,-8.322255611E-1,1.300344467E-1
6.391539341E0,-2.982921600E-1,-7.466906309E-1,3.308773041E-2
6.396539341E0,-2.124876976E-1,-6.535825729E-1,-3.991413116E-2
6.401539341E0,-1.388578415E-1,-5.518838167E-1,-6.335353851E-2
6.406539341E0,-4.915714264E-2,-4.755301476E-1,-5.340480804E-2
6.411539341E0,4.074501991E-2,-4.104697704E-1,-1.124095917E-2
6.416539341E0,1.229603291E-1,-3.589626551E-1,8.471107483E-2
6.421539341E0,2.251026630E-1,-2.650623322E-1,1.986131668E-1
6.426539341E0,3.175429106E-1,-1.468428373E-1,3.269462585E-1
6.431539341E0,3.466081619E-1,2.772474289E-2,4.453535080E-1
6.436539341E0,3.650982380E-1,2.606903315E-1,5.516576767E-1
6.441539341E0,4.237678051E-1,4.920096397E-1,6.624403000E-1
6.446539341E0,5.363737345E-1,6.980885267E-1,7.552995682E-1
6.451539341E0,6.376142502E-1,8.928705454E-1,8.902225494E-1
6.456539341E0,7.470425367E-1,1.055235744E0,1.059706688E0
6.461539341E0,8.989421129E-1,1.212260365E0,1.189392090E0
6.466539341E0,1.143120766E0,1.302656651E0,1.307834625E0
6.471539341E0,1.409376740E0,1.276620626E0,1.437126160E0
6.476539341E0,1.668041229E0,1.112969995E0,1.598419189E0
6.481539341E0,1.882538199E0,7.764269114E-1,1.857749939E0
6.486539341E0,1.966899395E0,4.308425188E-1,2.228654861E0
6.491539341E0,1.991090775E0,7.710242271E-2,2.708874702E0
6.496539341E0,1.898704767E0,-2.515015602E-1,3.282048225E0
6.501539341E0,1.792256355E0,-5.822315216E-1,3.950697899E0
6.506539341E0,1.666462898E0,-8.477832675E-1,4.573246956E0
6.511539341E0,1.519921064E0,-1.054534674E0,5.103973389E0
6.516539341E0,1.333891630E0,-1.197904587E0,5.475898743E0
6.521539341E0,1.152289629E0,-1.306318045E0,5.688170433E0
6.526539341E0,1.036378860E0,-1.339115143E0,5.692232132E0
6.531539341E0,1.012341738E0,-1.313016772E0,5.514954567E0
6.536539341E0,1.035931587E0,-1.189824700E0,5.158107758E0
6.541539341E0,1.101252079E0,-1.039327383E0,4.641926765E0
6.546539341E0,1.180152297E0,-8.661229610E-1,4.169744492E0
6.551539341E0,1.303815126E0,-7.225465775E-1,3.556138992E0
6.556539341E0,1.478070021E0,-6.084793210E-1,2.999583244E0
6.561539341E0,1.610726357E0,-4.729212523E-1,2.499083519E0
6.566539341E0,1.738443255E0,-3.579915762E-1,2.122941017E0
6.571539341E0,1.873981237E0,-2.882918119E-1,1.805603027E0
6.576539341E0,1.972036123E0,-2.494311333E-1,1.551309586E0
6.581539341E0,2.022696972E0,-2.613738775E-1,1.361311913E0
6.586539341E0,2.059373140E0,-3.332022429E-1,1.260699272E0
6.591539341E0,2.072655678E0,-4.109590054E-1,1.243979454E0
6.596539341E0,2.096859694E0,-4.742906094E-1,1.221405983E0
6.601539341E0,2.127145290E0,-4.920412302E-1,1.234127045E0
6.606539341E0,2.156384230E0,-4.715695381E-1,1.231503487E0
6.611539341E0,2.193988562E0,-4.418312311E-1,1.192003250E0
6.616539341E0,2.203534603E0,-3.366645575E-1,1.140076637E0
6.621539341E0,2.219891548E0,-2.277278900E-1,1.075862885E0
6.626539341E0,2.281728029E0,-1.010258198E-1,9.802389145E-1
6.631539341E0,2.399312019E0,-1.614785194E-2,8.100318909E-1
6.636539341E0,2.477361202E0,8.844590187E-2,6.739463806E-1
6.641539341E0,2.532453060E0,2.191245556E-1,4.934625626E-1
6.646539341E0,2.638960838E0,3.295195103E-1,2.715454102E-1
6.651539341E0,2.691124916E0,4.228302240E-1,8.031940460E-2
6.656539341E0,2.691550255E0,5.525927544E-1,-7.389450073E-2
6.661539341E0,2.720261574E0,6.963189840E-1,-2.361555099E-1
6.666539341E0,2.733157873E0,8.303197622E-1,-3.577594757E-1
6.671539341E0,2.763851643E0,9.315143824E-1,-4.682369232E-1
6.676539341E0,2.807545185E0,1.034345150E0,-5.774545670E-1
6.681539341E0,2.831424713E0,1.111738920E0,-6.797847748E-1
6.686539341E0,2.910543919E0,1.166315436E0,-7.495880127E-1
6.691539341E0,2.981714249E0,1.204963565E0,-7.678270340E-1
6.696539341E0,3.026449919E0,1.237092853E0,-7.803869247E-1
6.701539341E0,2.994725227E0,1.273494005E0,-7.677984238E-1
6.706539341E0,2.925791264E0,1.254384398E0,-7.221641541E-1
6.711539341E0,2.866845131E0,1.186515093E0,-6.334438324E-1
6.716539341E0,2.775592804E0,1.095485568E0,-4.858722687E-1
6.721539341E0,2.712263107E0,1.012078643E0,-3.361358643E-1
6.726539341E0,2.682862759E0,9.313261509E-1,-2.456169128E-1
6.731539341E0,2.661351681E0,8.655049801E-1,-1.572561264E-1
6.736539341E0,2.628165007E0,8.394782543E-1,-7.435703278E-2
6.741539341E0,2.676787376E0,8.301858902E-1,-3.635406494E-2
6.746539341E0,2.759432316E0,8.278477192E-1,-3.979301453E-2
6.751539341E0,2.854503155E0,8.159265518E-1,-7.131290436E-2
6.756539341E0,2.902779341E0,7.885987759E-1,-1.428956985E-1
6.761539341E0,2.891171932E0,7.088968754E-1,-2.014131546E-1
6.766539341E0,2.889682055E0,6.333606243E-1,-2.609910965E-1
6.771539341E0,2.914140701E0,5.429906845E-1,-2.524099350E-1
6.776539341E0,2.976310253E0,4.654455185E-1,-1.939268112E-1
6.781539341E0,2.995475769E0,3.615269661E-1,-9.469223022E-2
6.786539341E0,2.985894680E0,2.176041603E-1,5.149841309E-5
6.791539341E0,2.982370853E0,6.541085243E-2,1.492691040E-1
6.796539341E0,2.998250484E0,-1.045072079E-1,3.137111664E-1
6.801539341E0,2.996993065E0,-2.683935165E-1,4.770011902E-1
6.806539341E0,3.005030632E0,-4.088318348E-1,5.933856964E-1
6.811539341E0,3.024727345E0,-5.464886427E-1,6.689615250E-1
6.816539341E0,3.037259579E0,-6.558845043E-1,7.091455460E-1
6.821539341E0,3.040033579E0,-7.440550327E-1,7.551336288E-1
6.826539341E0,3.027072906E0,-8.105492592E-1,8.043708801E-1
6.831539341E0,3.026066542E0,-9.008264542E-1,8.296527863E-1
6.836539341E0,2.982820511E0,-9.926172495E-1,8.650226593E-1
6.841539341E0,2.945580721E0,-1.085186481E0,8.677501678E-1
6.846539341E0,2.940999508E0,-1.162960529E0,8.626899719E-1
6.851539341E0,2.937667847E0,-1.233689904E0,8.364315033E-1
6.856539341E0,2.974554539E0,-1.300806046E0,8.511991501E-1
6.861539341E0,3.054007530E0,-1.363986731E0,9.037313461E-1
6.866539341E0,3.070118189E0,-1.431927085E0,9.637460709E-1
6.871539341E0,3.062080860E0,-1.512742162E0,1.013367653E0
6.876539341E0,3.117824793E0,-1.598072529E0,1.034958839E0
6.881539341E0,3.154450893E0,-1.710233092E0,1.054570198E0
6.886539341E0,3.158661604E0,-1.846831799E0,1.073025703E0
6.891539341E0,3.166651011E0,-1.996759057E0,1.116559029E0
6.896539341E0,3.184776783E0,-2.123703480E0,1.153333664E0
6.901539341E0,3.156206131E0,-2.201744795E0,1.219459534E0
6.906539341E0,3.142447233E0,-2.247555256E0,1.258521080E0
6.911539341E0,3.037355423E0,-2.267210960E0,1.337801933E0
6.916539341E0,2.941383600E0,-2.345509052E0,1.228313446E0
6.921539341E0,2.866737366E0,-2.418105125E0,1.225244522E0
6.926539341E0,2.760384083E0,-2.418858767E0,1.249266624E0
6.931539341E0,2.687036514E0,-2.371160746E0,1.332211494E0
6.936539341E0,2.597306490E0,-2.297397852E0,1.342020988E0
6.941539341E0,2.488424301E0,-2.221841574E0,1.302403450E0
6.946539341E0,2.385949612E0,-2.161653757E0,1.274998665E0
6.951539341E0,2.306945324E0,-2.109778404E0,1.245865822E0
6.956539341E0,2.279794216E0,-2.083341599E0,1.159723282E0
6.961539341E0,2.303984642E0,-2.066949844E0,1.023828506E0
6.966539341E0,2.374075890E0,-2.052354097E0,8.865270615E-1
6.971539341E0,2.484582424E0,-2.103537083E0,7.488241196E-1
6.976539341E0,2.594134331E0,-2.228879452E0,6.261949539E-1
6.981539341E0,2.699852943E0,-2.383313894E0,5.535554886E-1
6.986539341E0,2.726226807E0,-2.628045082E0,5.109891891E-1
6.991539341E0,2.789429426E0,-2.921670198E0,4.983062744E-1
6.996539341E0,2.836934090E0,-3.220890760E0,6.144342422E-1
7.001539341E0,2.774713278E0,-3.489893436E0,8.041152954E-1
7.006539341E0,2.648646355E0,-3.724047899E0,1.061730385E0
7.011539341E0,2.504838467E0,-3.911048412E0,1.337992668E0
7.016539341E0,2.288631439E0,-4.024964333E0,1.668407440E0
7.021539341E0,2.052897215E0,-4.070645332E0,2.018331528E0
7.026539341E0,1.815578461E0,-4.096531391E0,2.304816246E0
7.031539341E0,1.574995995E0,-4.047606468E0,2.455028534E0
7.036539341E0,1.343152046E0,-3.934082985E0,2.473393440E0
7.041539341E0,1.184160233E0,-3.784545898E0,2.349419594E0
7.046539341E0,1.079718590E0,-3.621825695E0,2.157708168E0
7.051539341E0,1.090601444E0,-3.416348934E0,1.881911278E0
7.056539341E0,1.168547630E0,-3.164203644E0,1.518774986E0
7.061539341E0,1.237837791E0,-2.881936550E0,1.183423042E0
7.066539341E0,1.312252522E0,-2.622652292E0,9.031066895E-1
7.071539341E0,1.397489786E0,-2.420806408E0,7.346506119E-1
7.076539341E0,1.480958700E0,-2.267511845E0,5.913219452E-1
7.081539341E0,1.627352238E0,-2.161401272E0,5.018701553E-1
7.086539341E0,1.853433132E0,-2.117188931E0,4.431352615E-1
7.091539341E0,2.066701889E0,-2.097301245E0,4.763183594E-1
7.096539341E0,2.316215277E0,-2.093704939E0,5.394611359E-1
7.101539341E0,2.579380274E0,-2.157804489E0,6.811161041E-1
7.106539341E0,2.828031301E0,-2.212178707E0,9.283733368E-1
7.111539341E0,2.996160030E0,-2.285602093E0,1.278017998E0
7.116539341E0,3.089373827E0,-2.414342403E0,1.609891891E0
7.121539341E0,3.114207506E0,-2.609552145E0,2.024703979E0
7.126539341E0,3.142964840E0,-2.824918509E0,2.405250549E0
7.131539341E0,3.167941332E0,-3.004395723E0,2.770500183E0
7.136539341E0,3.089869261E0,-3.138514042E0,3.073499680E0
7.141539341E0,2.953723431E0,-3.209883451E0,3.355749130E0
7.146539341E0,2.769723892E0,-3.268552303E0,3.593733788E0
7.151539341E0,2.590276480E0,-3.293168545E0,3.735075951E0
7.156539341E0,2.377848864E0,-3.291450500E0,3.766551971E0
7.161539341E0,2.199831963E0,-3.275566101E0,3.658523560E0
7.166539341E0,2.092424393E0,-3.218497038E0,3.389887810E0
7.171539341E0,2.063172579E0,-3.129744530E0,2.973237991E0
7.176539341E0,2.055235386E0,-3.016053915E0,2.483621597E0
7.181539341E0,2.063668251E0,-2.849763393E0,1.983172417E0
7.186539341E0,2.100795269E0,-2.635540009E0,1.523987770E0
7.191539341E0,2.133826733E0,-2.392969608E0,1.123775482E0
7.196539341E0,2.197945356E0,-2.180413246E0,8.020648956E-1
7.201539341E0,2.297519684E0,-1.995078564E0,5.584802628E-1
7.206539341E0,2.363682747E0,-1.868214488E0,3.396730423E-1
7.211539341E0,2.343426704E0,-1.747238278E0,1.625804901E-1
7.216539341E0,2.329001904E0,-1.632024884E0,4.685306549E-2
7.221539341E0,2.358619213E0,-1.553009629E0,-4.549026489E-3
7.226539341E0,2.378088474E0,-1.479383230E0,1.748371124E-2
7.231539341E0,2.392888784E0,-1.440722823E0,9.314918518E-2
7.236539341E0,2.366673470E0,-1.420621634E0,1.703872681E-1
7.241539341E0,2.324284315E0,-1.389043808E0,2.205247879E-1
7.246539341E0,2.303020477E0,-1.387668252E0,2.593851089E-1
7.251539341E0,2.291668415E0,-1.422026038E0,2.631797791E-1
7.256539341E0,2.289440155E0,-1.470366955E0,2.560958862E-1
7.261539341E0,2.250387430E0,-1.527594924E0,2.663660049E-1
7.266539341E0,2.199933290E0,-1.589896441E0,3.057937622E-1
7.271539341E0,2.160417318E0,-1.610635161E0,3.567895889E-1
7.276539341E0,2.113685131E0,-1.627801061E0,4.158744812E-1
7.281539341E0,2.085237980E0,-1.625646114E0,4.801902771E-1
7.286539341E0,2.032014370E0,-1.645869017E0,5.494213104E-1
7.291539341E0,2.004177570E0,-1.650859594E0,6.456193924E-1
7.296539341E0,2.016823292E0,-1.656838536E0,7.239723206E-1
7.301539341E0,1.991575718E0,-1.672894478E0,7.844095230E-1
7.306539341E0,1.956545234E0,-1.696462750E0,8.349256516E-1
7.311539341E0,1.883159876E0,-1.758729219E0,8.869361877E-1
7.316539341E0,1.787091374E0,-1.830043674E0,8.923330307E-1
7.321539341E0,1.676455379E0,-1.915022612E0,9.479322433E-1
7.326539341E0,1.591820717E0,-2.001970768E0,9.659051895E-1
7.331539341E0,1.498863935E0,-2.059247255E0,9.759492874E-1
7.336539341E0,1.365518808E0,-2.120393753E0,1.001310349E0
7.341539341E0,1.258163929E0,-2.184606314E0,1.026282310E0
7.346539341E0,1.158647776E0,-2.260873079E0,1.000744820E0
7.351539341E0,1.083101034E0,-2.340306759E0,9.885406494E-1
7.356539341E0,1.022583485E0,-2.386773825E0,9.821453094E-1
7.361539341E0,9.822874069E-1,-2.430052519E0,9.589118958E-1
7.366539341E0,9.118318558E-1,-2.438080311E0,9.264831543E-1
7.371539341E0,8.756289482E-1,-2.423232555E0,8.673973083E-1
7.376539341E0,8.733296394E-1,-2.411901712E0,8.395662308E-1
7.381539341E0,9.095270634E-1,-2.422759771E0,8.329086304E-1
7.386539341E0,9.474143982E-1,-2.440197229E0,8.448743820E-1
7.391539341E0,9.621534348E-1,-2.457878351E0,8.560838699E-1
7.396539341E0,9.313175678E-1,-2.462204933E0,8.648204803E-1
7.401539341E0,9.610962868E-1,-2.453693390E0,8.785524368E-1
7.406539341E0,1.018569589E0,-2.421592712E0,8.703117371E-1
7.411539341E0,1.054901838E0,-2.371855259E0,8.778257370E-1
7.416539341E0,1.050989866E0,-2.313025713E0,8.736848831E-1
7.421539341E0,1.007598639E0,-2.251536131E0,8.638648987E-1
7.426539341E0,9.454486370E-1,-2.203408718E0,8.269653320E-1
7.431539341E0,8.822857141E-1,-2.119175434E0,7.710695267E-1
7.436539341E0,7.660079002E-1,-2.026832581E0,7.116231918E-1
7.441539341E0,6.223876476E-1,-1.937592626E0,6.759967804E-1
7.446539341E0,4.504835606E-1,-1.834419250E0,6.199493408E-1
7.451539341E0,2.622635365E-1,-1.729967117E0,5.691928864E-1
7.456539341E0,8.533406258E-2,-1.683670521E0,4.844980240E-1
7.461539341E0,-6.746411324E-2,-1.686476111E0,3.966827393E-1
7.466539341E0,-1.696932316E-1,-1.733057141E0,3.474731445E-1
7.471539341E0,-2.040941715E-1,-1.821923256E0,3.273897171E-1
7.476539341E0,-1.565060616E-1,-1.907559395E0,3.612098694E-1
7.481539341E0,-9.327721596E-2,-2.013020277E0,4.419965744E-1
7.486539341E0,-2.906847000E-2,-2.142583132E0,4.926757812E-1
7.491539341E0,-3.055810928E-2,-2.283755302E0,6.521577835E-1
7.496539341E0,-1.936745644E-2,-2.437402248E0,9.204206467E-1
7.501539341E0,7.430148125E-2,-2.542344570E0,1.261181831E0
7.506539341E0,2.670881748E-1,-2.548650742E0,1.638113022E0
7.511539341E0,4.102050066E-1,-2.523797989E0,1.950417519E0
7.516539341E0,4.761614799E-1,-2.435520411E0,2.172533035E0
7.521539341E0,4.474453926E-1,-2.310927391E0,2.303453445E0
7.526539341E0,3.493664265E-1,-2.157508135E0,2.336601257E0
7.531539341E0,2.283231020E-1,-2.013718128E0,2.280111313E0
7.536539341E0,5.696320534E-2,-1.925576091E0,2.104172707E0
7.541539341E0,-1.079879999E-1,-1.857207417E0,1.889133453E0
7.546539341E0,-2.320284843E-1,-1.846399784E0,1.661386490E0
7.551539341E0,-3.605948687E-1,-1.847181678E0,1.424254417E0
7.556539341E0,-5.317727327E-1,-1.846492767E0,1.207661629E0
7.561539341E0,-6.647526026E-1,-1.829623461E0,1.023755074E0
7.566539341E0,-7.651510239E-1,-1.787395716E0,8.428955078E-1
7.571539341E0,-9.045591354E-1,-1.722033739E0,6.839551926E-1
7.576539341E0,-1.032459855E0,-1.644113302E0,5.841455460E-1
7.581539341E0,-1.097809672E0,-1.561022878E0,4.942092896E-1
7.586539341E0,-1.099424481E0,-1.412871838E0,4.088850021E-1
7.591539341E0,-1.057702422E0,-1.224091291E0,2.860279083E-1
7.596539341E0,-1.064070582E0,-1.017635345E0,1.341218948E-1
7.601539341E0,-1.070432425E0,-8.254034519E-1,-5.787944794E-2
7.606539341E0,-1.024194241E0,-6.530078053E-1,-2.563743591E-1
7.611539341E0,-8.887910843E-1,-5.094492435E-1,-4.554891586E-1
7.616539341E0,-7.685025930E-1,-4.024034739E-1,-5.770263672E-1
7.621539341E0,-6.537557840E-1,-2.870630026E-1,-6.552963257E-1
7.626539341E0,-5.495363474E-1,-1.941761971E-1,-7.394142151E-1
7.631539341E0,-4.210331440E-1,-7.819145918E-2,-7.797441483E-1
7.636539341E0,-3.119652271E-1,2.856063843E-2,-7.917556763E-1
7.641539341E0,-2.331594229E-1,1.457661390E-1,-8.062763214E-1
7.646539341E0,-1.872588396E-1,2.696693540E-1,-8.179903030E-1
7.651539341E0,-1.229244471E-1,3.750432730E-1,-8.120965958E-1
7.656539341E0,-7.804334164E-2,4.131428003E-1,-7.725286484E-1
7.661539341E0,-7.978796959E-2,4.262666106E-1,-7.055664062E-1
7.666539341E0,-1.147388220E-1,4.174115658E-1,-6.171960831E-1
7.671539341E0,-2.166589499E-1,4.048110843E-1,-5.234851837E-1
7.676539341E0,-3.611538410E-1,3.547265530E-1,-4.162073135E-1
7.681539341E0,-4.740487337E-1,2.795149684E-1,-3.146152496E-1
7.686539341E0,-5.820691586E-1,1.784795523E-1,-2.078742981E-1
7.691539341E0,-7.109986544E-1,8.824193478E-2,-1.142215729E-1
7.696539341E0,-8.630826473E-1,-9.027004242E-3,-3.723526001E-2
7.701539341E0,-1.018829465E0,-8.497816324E-2,1.677799225E-2
7.706539341E0,-1.171403646E0,-1.508702040E-1,2.716636658E-2
7.711539341E0,-1.342012525E0,-1.685993075E-1,1.464653015E-2
7.716539341E0,-1.451704025E0,-1.368495226E-1,-2.173709869E-2
7.721539341E0,-1.489436388E0,-6.368321180E-2,-7.148170471E-2
7.726539341E0,-1.482964993E0,5.776566267E-2,-1.067380905E-1
7.731539341E0,-1.480842113E0,1.778686047E-1,-2.058744431E-1
7.736539341E0,-1.460297823E0,2.999911308E-1,-3.568143845E-1
7.741539341E0,-1.445282578E0,4.284842610E-1,-4.866285324E-1
7.746539341E0,-1.440858603E0,5.782696605E-1,-5.594348907E-1
7.751539341E0,-1.401399970E0,7.112714052E-1,-6.144599915E-1
7.756539341E0,-1.357976079E0,8.259493709E-1,-6.757574081E-1
7.761539341E0,-1.357220531E0,9.274622202E-1,-7.083339691E-1
7.766539341E0,-1.357136965E0,1.056107044E0,-6.960105896E-1
7.771539341E0,-1.337759614E0,1.207913041E0,-7.030763626E-1
7.776539341E0,-1.324567080E0,1.337330818E0,-7.288999557E-1
7.781539341E0,-1.339810967E0,1.454101562E0,-7.358722687E-1
7.786539341E0,-1.401623130E0,1.508360147E0,-7.286310196E-1
7.791539341E0,-1.460629940E0,1.536289215E0,-7.214107513E-1
7.796539341E0,-1.499316573E0,1.589131951E0,-7.603788376E-1
7.801539341E0,-1.532963753E0,1.637583971E0,-8.004264832E-1
7.806539341E0,-1.549119353E0,1.689174891E0,-8.466806412E-1
7.811539341E0,-1.574207544E0,1.695954204E0,-8.708677292E-1
7.816539341E0,-1.580591440E0,1.702958345E0,-8.650636673E-1
7.821539341E0,-1.552828312E0,1.705576658E0,-8.310995102E-1
7.826539341E0,-1.527184367E0,1.760122776E0,-7.890377045E-1
7.831539341E0,-1.496453047E0,1.815561891E0,-7.197656631E-1
7.836539341E0,-1.464684606E0,1.861657619E0,-6.347360611E-1
7.841539341E0,-1.409018040E0,1.912965059E0,-5.478744507E-1
7.846539341E0,-1.364033461E0,1.935841680E0,-4.551820755E-1
7.851539341E0,-1.351609111E0,1.945389986E0,-3.064470291E-1
7.856539341E0,-1.390033960E0,1.940618038E0,-1.484174728E-1
7.861539341E0,-1.402394056E0,1.911713362E0,-1.615524292E-3
7.866539341E0,-1.358717799E0,1.869250536E0,1.708211899E-1
7.871539341E0,-1.350290418E0,1.839395523E0,2.436876297E-1
7.876539341E0,-1.348760486E0,1.772928953E0,3.069524765E-1
7.881539341E0,-1.334961891E0,1.714684248E0,3.790340424E-1
7.886539341E0,-1.305446863E0,1.660549879E0,4.469366074E-1
7.891539341E0,-1.251327753E0,1.630256414E0,4.871597290E-1
7.896539341E0,-1.184624553E0,1.593216181E0,5.266675949E-1
7.901539341E0,-1.094152570E0,1.591584444E0,5.516414642E-1
7.906539341E0,-9.649484158E-1,1.588355780E0,5.771970749E-1
7.911539341E0,-8.473732471E-1,1.596320987E0,6.194362640E-1
7.916539341E0,-7.448838949E-1,1.588249683E0,7.085084915E-1
7.921539341E0,-6.410835981E-1,1.580573320E0,7.895727158E-1
7.926539341E0,-5.806677341E-1,1.559391260E0,8.467931747E-1
7.931539341E0,-5.277419090E-1,1.498316288E0,8.898735046E-1
7.936539341E0,-5.382037163E-1,1.386938691E0,9.136781693E-1
7.941539341E0,-5.779995918E-1,1.251053810E0,9.442529678E-1
7.946539341E0,-6.046065092E-1,1.094024539E0,9.286851883E-1
7.951539341E0,-6.236821413E-1,9.326811433E-1,8.952436447E-1
7.956539341E0,-6.569722891E-1,7.753060460E-1,8.860874176E-1
7.961539341E0,-7.299449444E-1,6.374019384E-1,8.856115341E-1
7.966539341E0,-8.191742897E-1,5.037117600E-1,9.129886627E-1
7.971539341E0,-9.239709377E-1,4.038165808E-1,9.533338547E-1
7.976539341E0,-1.025257587E0,3.200725317E-1,9.742898941E-1
7.981539341E0,-1.129889011E0,2.888250947E-1,9.588479996E-1
7.986539341E0,-1.216520309E0,3.222995996E-1,9.424486160E-1
7.991539341E0,-1.274018407E0,4.134837389E-1,9.094810486E-1
7.996539341E0,-1.362046123E0,5.014104843E-1,8.750877380E-1
8.001539341E0,-1.420397639E0,5.866398811E-1,7.727432251E-1
8.006539341E0,-1.500448108E0,6.295002699E-1,6.396036148E-1
8.011539341E0,-1.549608588E0,6.359575987E-1,5.011701584E-1
8.016539341E0,-1.524393559E0,5.898300409E-1,3.887510300E-1
8.021539341E0,-1.432529330E0,4.494521618E-1,2.648563385E-1
8.026539341E0,-1.287776589E0,1.953747272E-1,1.749353409E-1
8.031539341E0,-1.062878251E0,-1.864943504E-1,4.720211029E-2
8.036539341E0,-9.031119347E-1,-5.835343599E-1,-2.837276459E-2
8.041539341E0,-9.002988338E-1,-9.398969412E-1,1.524257660E-2
8.046539341E0,-9.207308292E-1,-1.251675725E0,2.238922119E-1
8.051539341E0,-1.009093285E0,-1.529568195E0,6.340837479E-1
8.056539341E0,-1.139542341E0,-1.795613647E0,1.185368538E0
8.061539341E0,-1.270602226E0,-2.096375465E0,1.746484756E0
8.066539341E0,-1.384784579E0,-2.395953894E0,2.220753670E0
8.071539341E0,-1.489624500E0,-2.670657158E0,2.520417213E0
8.076539341E0,-1.589041948E0,-2.858447075E0,2.666584015E0
8.081539341E0,-1.657003522E0,-2.959135056E0,2.717002869E0
8.086539341E0,-1.678136706E0,-2.959042072E0,2.687599182E0
8.091539341E0,-1.681697488E0,-2.915177107E0,2.482645035E0
8.096539341E0,-1.626409531E0,-2.812257767E0,2.107815742E0
8.101539341E0,-1.516326547E0,-2.664599419E0,1.594727516E0
8.106539341E0,-1.411822438E0,-2.471843004E0,1.069789886E0
8.111539341E0,-1.346080065E0,-2.211703539E0,6.070308685E-1
8.116539341E0,-1.273467422E0,-1.894814253E0,1.937665939E-1
8.121539341E0,-1.132161975E0,-1.565190911E0,-2.053623199E-1
8.126539341E0,-9.537111521E-1,-1.266346216E0,-6.028442383E-1
8.131539341E0,-8.147110939E-1,-1.026464224E0,-9.285793304E-1
8.136539341E0,-7.341966629E-1,-8.208974004E-1,-1.178718567E0
8.141539341E0,-6.840178967E-1,-6.276209354E-1,-1.378108025E0
8.146539341E0,-5.898993015E-1,-4.311562777E-1,-1.503335953E0
8.151539341E0,-4.990524054E-1,-2.908564806E-1,-1.564469337E0
8.156539341E0,-4.345415831E-1,-2.073837519E-1,-1.526466370E0
8.161539341E0,-3.973110914E-1,-1.705943346E-1,-1.438041687E0
8.166539341E0,-3.561378717E-1,-1.729967594E-1,-1.294124603E0
8.171539341E0,-3.384276628E-1,-2.247201204E-1,-1.093927383E0
8.176539341E0,-3.768376112E-1,-3.167547584E-1,-8.764352798E-1
8.181539341E0,-4.546487331E-1,-4.900483489E-1,-6.668806076E-1
8.186539341E0,-5.538250208E-1,-6.974029541E-1,-4.455108643E-1
8.191539341E0,-6.949093342E-1,-9.298380613E-1,-2.249498367E-1
8.196539341E0,-8.460026979E-1,-1.175163031E0,-3.348636627E-2
8.201539341E0,-9.549556971E-1,-1.355075002E0,8.673095703E-2
8.206539341E0,-1.009478569E0,-1.465014219E0,1.530103683E-1
8.211539341E0,-1.041466951E0,-1.488345623E0,1.438207626E-1
8.216539341E0,-1.062467694E0,-1.469295859E0,9.165573120E-2
8.221539341E0,-1.052476645E0,-1.402924180E0,-8.480072021E-3
8.226539341E0,-9.831000566E-1,-1.288502812E0,-1.770343781E-1
8.231539341E0,-9.339349270E-1,-1.143968105E0,-3.848848343E-1
8.236539341E0,-8.881479502E-1,-9.598242044E-1,-6.371488571E-1
8.241539341E0,-8.186408281E-1,-7.464517355E-1,-8.816404343E-1
8.246539341E0,-7.831002474E-1,-5.332736969E-1,-1.100522041E0
8.251539341E0,-7.143620253E-1,-3.287693262E-1,-1.293335915E0
8.256539341E0,-6.576426029E-1,-1.542021036E-1,-1.482950211E0
8.261539341E0,-6.501178741E-1,6.890058517E-3,-1.627398491E0
8.266539341E0,-6.525589228E-1,1.568152905E-1,-1.753282547E0
8.271539341E0,-6.045635939E-1,2.858464718E-1,-1.889374733E0
8.276539341E0,-5.765203238E-1,4.086548090E-1,-2.008004189E0
8.281539341E0,-5.317842960E-1,5.025289059E-1,-2.095910072E0
8.286539341E0,-5.112082958E-1,5.785104036E-1,-2.141289711E0
8.291539341E0,-4.976972342E-1,6.330913305E-1,-2.155046463E0
8.296539341E0,-4.689308405E-1,6.661537886E-1,-2.169739723E0
8.301539341E0,-4.669953585E-1,6.794096231E-1,-2.158476830E0
8.306539341E0,-4.802922010E-1,6.447401047E-1,-2.127324581E0
8.311539341E0,-5.017439127E-1,5.976344347E-1,-2.040237427E0
8.316539341E0,-5.524219275E-1,5.593047142E-1,-1.968687057E0
8.321539341E0,-5.389873981E-1,5.213450193E-1,-1.875201225E0
8.326539341E0,-4.894708395E-1,4.913778305E-1,-1.738716125E0
8.331539341E0,-4.408054352E-1,4.618046284E-1,-1.580245018E0
8.336539341E0,-4.012639523E-1,4.330838919E-1,-1.369565010E0
8.341539341E0,-3.467543125E-1,3.906036615E-1,-1.186732292E0
8.346539341E0,-2.881618738E-1,3.571990728E-1,-1.033847809E0
8.351539341E0,-2.562712431E-1,3.141970634E-1,-8.562698364E-1
8.356539341E0,-2.447998524E-1,2.811263204E-1,-6.919879913E-1
8.361539341E0,-2.345387936E-1,2.394912839E-1,-5.564813614E-1
8.366539341E0,-2.091033459E-1,2.084608674E-1,-4.095830917E-1
8.371539341E0,-1.801385880E-1,1.725381017E-1,-2.628402710E-1
8.376539341E0,-1.888107061E-1,1.555802822E-1,-1.404371262E-1
8.381539341E0,-2.353554964E-1,1.382732391E-1,-1.846313477E-3
8.386539341E0,-2.623767853E-1,1.432042718E-1,9.351444244E-2
8.391539341E0,-2.833501101E-1,1.539871097E-1,1.760454178E-1
8.396539341E0,-2.734668255E-1,1.648325324E-1,2.357311249E-1
8.401539341E0,-2.595562935E-1,1.998069882E-1,2.254648209E-1
8.406539341E0,-2.679798603E-1,2.407290339E-1,2.254981995E-1
8.411539341E0,-2.506394386E-1,3.219897747E-1,2.045850754E-1
8.416539341E0,-2.000702620E-1,4.334450960E-1,1.638908386E-1
8.421539341E0,-1.295392513E-1,5.622809529E-1,9.016895294E-2
8.426539341E0,-5.743312836E-2,6.642012596E-1,-3.279209137E-2
8.431539341E0,-3.375184536E-2,7.731969357E-1,-1.596717834E-1
8.436539341E0,-3.482699394E-2,8.801207542E-1,-2.717370987E-1
8.441539341E0,-3.142833710E-2,9.589658976E-1,-3.552227020E-1
8.446539341E0,-3.256678581E-2,1.035625815E0,-4.433412552E-1
8.451539341E0,-9.556341171E-2,1.114245653E0,-5.107564926E-1
8.456539341E0,-1.377513409E-1,1.183867693E0,-5.899200439E-1
8.461539341E0,-1.682479382E-1,1.238123655E0,-6.385354996E-1
8.466539341E0,-1.910556555E-1,1.308503151E0,-6.336898804E-1
8.471539341E0,-1.602499485E-1,1.346733689E0,-6.364202499E-1
8.476539341E0,-1.342018843E-1,1.361011982E0,-6.544189453E-1
8.481539341E0,-1.645036936E-1,1.396860123E0,-6.477785110E-1
8.486539341E0,-1.968990564E-1,1.425020695E0,-6.127471924E-1
8.491539341E0,-2.177073956E-1,1.468840122E0,-5.354309082E-1
8.496539341E0,-2.470934391E-1,1.456548929E0,-4.272832870E-1
8.501539341E0,-2.976316214E-1,1.456623793E0,-3.231363297E-1
8.506539341E0,-3.365175724E-1,1.429614067E0,-2.442712784E-1
8.511539341E0,-3.345843554E-1,1.402658105E0,-1.973037720E-1
8.516539341E0,-3.300342560E-1,1.397651434E0,-1.472854614E-1
8.521539341E0,-3.505160809E-1,1.362878323E0,-9.514808655E-2
8.526539341E0,-4.014885426E-1,1.320734978E0,-3.095340729E-2
8.531539341E0,-4.142148495E-1,1.274623632E0,6.297111511E-2
8.536539341E0,-4.185429811E-1,1.211661577E0,1.555309296E-1
8.541539341E0,-4.340047836E-1,1.156188726E0,2.924613953E-1
8.546539341E0,-4.516054392E-1,1.121863604E0,4.335346222E-1
8.551539341E0,-4.587657452E-1,1.090182304E0,5.460329056E-1
8.556539341E0,-4.106907845E-1,1.034640431E0,6.255493164E-1
8.561539341E0,-3.692861795E-1,9.699898958E-1,6.482620239E-1
8.566539341E0,-3.602212667E-1,8.859858513E-1,7.291955948E-1
8.571539341E0,-3.500481844E-1,7.910575867E-1,8.304710388E-1
8.576539341E0,-3.884677887E-1,7.328052521E-1,9.654941559E-1
8.581539341E0,-4.878051281E-1,7.177848816E-1,1.101491928E0
8.586539341E0,-6.417273283E-1,7.262281179E-1,1.233049393E0
8.591539341E0,-8.143335581E-1,7.570034266E-1,1.377404213E0
8.596539341E0,-9.071367979E-1,8.057500124E-1,1.474811554E0
8.601539341E0,-9.314031601E-1,8.877208233E-1,1.518504143E0
8.606539341E0,-9.784833193E-1,9.684462547E-1,1.519646645E0
8.611539341E0,-1.009944797E0,1.025177002E0,1.492178917E0
8.616539341E0,-9.406799078E-1,1.013684988E0,1.451558113E0
8.621539341E0,-7.762140036E-1,9.353359938E-1,1.428419113E0
8.626539341E0,-6.237863302E-1,7.939570546E-1,1.491509438E0
8.631539341E0,-5.152486563E-1,5.971776247E-1,1.680490494E0
8.636539341E0,-4.498811960E-1,3.477684855E-1,1.987170219E0
8.641539341E0,-4.085519314E-1,9.353929758E-2,2.376236916E0
8.646539341E0,-4.349167347E-1,-1.881775260E-1,2.835822105E0
8.651539341E0,-5.274671316E-1,-4.911225140E-1,3.307314873E0
8.656539341E0,-6.288241148E-1,-7.808388472E-1,3.723849297E0
8.661539341E0,-7.255825400E-1,-1.058505774E0,4.054063797E0
8.666539341E0,-8.444665670E-1,-1.323387384E0,4.304237366E0
8.671539341E0,-9.560402632E-1,-1.556358814E0,4.474749565E0
8.676539341E0,-1.037404776E0,-1.751576424E0,4.517241478E0
8.681539341E0,-1.061816931E0,-1.868509889E0,4.399153709E0
8.686539341E0,-1.066379309E0,-1.914337158E0,4.152934074E0
8.691539341E0,-9.975076914E-1,-1.879859924E0,3.716717720E0
8.696539341E0,-8.741279840E-1,-1.766796827E0,3.232945442E0
8.701539341E0,-7.708903551E-1,-1.562670231E0,2.760713577E0
8.706539341E0,-6.199508905E-1,-1.315960407E0,2.262837410E0
8.711539341E0,-4.193774462E-1,-1.049163699E0,1.747472763E0
8.716539341E0,-1.959609985E-1,-7.984515429E-1,1.214452744E0
8.721539341E0,3.478610516E-2,-5.793542266E-1,7.284984589E-1
8.726539341E0,2.388125658E-1,-3.883226812E-1,2.689008713E-1
8.731539341E0,3.880314827E-1,-2.490031719E-1,-9.136104584E-2
8.736539341E0,5.288205147E-1,-1.352878809E-1,-3.966426849E-1
8.741539341E0,6.498949528E-1,-5.001467466E-2,-6.548261642E-1
8.746539341E0,7.297137976E-1,-3.640353680E-2,-8.507299423E-1
8.751539341E0,7.992427945E-1,-5.623501539E-2,-9.873771667E-1
8.756539341E0,8.699074388E-1,-1.069957614E-1,-1.022612572E0
8.761539341E0,9.543901682E-1,-1.640731692E-1,-9.929819107E-1
8.766539341E0,1.032714367E0,-1.969469786E-1,-9.281921387E-1
8.771539341E0,1.109800100E0,-2.324147820E-1,-8.458080292E-1
8.776539341E0,1.172386408E0,-2.812849879E-1,-7.688837051E-1
8.781539341E0,1.219817996E0,-3.479441404E-1,-7.212953568E-1
8.786539341E0,1.219638705E0,-4.424565732E-1,-6.503734589E-1
8.791539341E0,1.195644498E0,-5.705112219E-1,-5.963544846E-1
8.796539341E0,1.132629156E0,-6.899196506E-1,-5.795316696E-1
8.801539341E0,1.053571224E0,-7.993695736E-1,-5.692377090E-1
8.806539341E0,9.848395586E-1,-9.178760052E-1,-5.727062225E-1
8.811539341E0,8.735121489E-1,-1.014403224E0,-6.173477173E-1
8.816539341E0,7.557616830E-1,-1.088208556E0,-6.667785645E-1
8.821539341E0,6.319293976E-1,-1.121865988E0,-7.311792374E-1
8.826539341E0,5.288527012E-1,-1.153198600E0,-8.124485016E-1
8.831539341E0,4.047099352E-1,-1.136286974E0,-8.907079697E-1
8.836539341E0,2.808982134E-1,-1.070688248E0,-1.006646156E0
8.841539341E0,1.730514765E-1,-1.008538246E0,-1.155992508E0
8.846539341E0,1.142438650E-1,-9.251402617E-1,-1.337182999E0
8.851539341E0,7.908415794E-2,-8.164826632E-1,-1.544356346E0
8.856539341E0,6.240820885E-2,-7.119762897E-1,-1.736245155E0
8.861539341E0,4.254996777E-2,-6.100795269E-1,-1.923159599E0
8.866539341E0,1.034355164E-2,-5.059561729E-1,-2.117990494E0
8.871539341E0,1.152384281E-2,-3.966408372E-1,-2.295398712E0
8.876539341E0,3.625690937E-2,-2.925813794E-1,-2.470884323E0
8.881539341E0,5.077111721E-2,-1.870271564E-1,-2.616336823E0
8.886539341E0,7.318401337E-2,-9.015715122E-2,-2.743787766E0
8.891539341E0,1.175471544E-1,4.021525383E-4,-2.830509663E0
8.896539341E0,1.426477432E-1,9.919387102E-2,-2.873507500E0
8.901539341E0,1.824307442E-1,1.683619618E-1,-2.865250111E0
8.906539341E0,2.340189219E-1,2.376567721E-1,-2.783979416E0
8.911539341E0,2.714335918E-1,3.072443008E-1,-2.633709908E0
8.916539341E0,3.018639684E-1,3.753816485E-1,-2.460734367E0
8.921539341E0,3.541162014E-1,4.299867749E-1,-2.287385464E0
8.926539341E0,4.218832850E-1,4.948095083E-1,-2.121117115E0
8.931539341E0,4.863516092E-1,5.553313494E-1,-1.986409664E0
8.936539341E0,5.166611671E-1,6.189208627E-1,-1.873554230E0
8.941539341E0,5.314662457E-1,6.516394019E-1,-1.780425072E0
8.946539341E0,5.250693560E-1,6.717904210E-1,-1.698985100E0
8.951539341E0,5.105960369E-1,6.549130678E-1,-1.653260231E0
8.956539341E0,5.052043796E-1,6.380152702E-1,-1.616044044E0
8.961539341E0,5.004272461E-1,5.963308215E-1,-1.589660645E0
8.966539341E0,4.157788754E-1,5.548233390E-1,-1.569834709E0
8.971539341E0,3.222242594E-1,5.276575089E-1,-1.552732468E0
8.976539341E0,2.551828623E-1,4.991793036E-1,-1.513337135E0
8.981539341E0,2.318943739E-1,4.704149365E-1,-1.491523743E0
8.986539341E0,1.927260160E-1,4.409860373E-1,-1.464291573E0
8.991539341E0,1.306275129E-1,4.439993501E-1,-1.424155235E0
8.996539341E0,1.221926212E-1,4.745167494E-1,-1.381299973E0
9.001539341E0,1.173788309E-1,5.314518213E-1,-1.386673927E0
9.006539341E0,1.034579277E-1,5.783711672E-1,-1.385578156E0
9.011539341E0,1.141242981E-1,6.523000598E-1,-1.387276649E0
9.016539341E0,1.435942650E-1,6.553760171E-1,-1.386011124E0
9.021539341E0,9.353983402E-2,6.365930438E-1,-1.302141190E0
9.026539341E0,1.067709923E-2,6.141341329E-1,-1.189347267E0
9.031539341E0,1.514220238E-2,5.654997230E-1,-1.085805893E0
9.036539341E0,-1.804482937E-2,4.815499187E-1,-9.672088623E-1
9.041539341E0,-1.216417551E-1,3.915356398E-1,-7.956762314E-1
9.046539341E0,-2.187050581E-1,2.934458852E-1,-6.066436768E-1
9.051539341E0,-3.067644835E-1,1.726970673E-1,-4.352874756E-1
9.056539341E0,-4.211448431E-1,5.101436377E-2,-2.858772278E-1
9.061539341E0,-5.344277620E-1,-2.065676451E-2,-1.704616547E-1
9.066539341E0,-6.100025177E-1,-3.913533688E-2,-4.664516449E-2
9.071539341E0,-6.398336887E-1,-3.696000576E-2,7.219314575E-2
9.076539341E0,-6.417857409E-1,-7.732868195E-3,1.577177048E-1
9.081539341E0,-5.988523960E-1,1.913690567E-2,1.980609894E-1
9.086539341E0,-5.433369875E-1,6.670612097E-2,2.286167145E-1
9.091539341E0,-4.878334999E-1,1.020038724E-1,2.672491074E-1
9.096539341E0,-4.417881966E-1,1.639070511E-1,3.216648102E-1
9.101539341E0,-3.532978296E-1,2.203752995E-1,3.306322098E-1
9.106539341E0,-2.334883213E-1,2.771023512E-1,3.202447891E-1
9.111539341E0,-1.030899286E-1,3.451341391E-1,3.337354660E-1
9.116539341E0,1.813280582E-2,4.230846167E-1,3.551054001E-1
9.121539341E0,1.597112417E-1,4.940584302E-1,4.560003281E-1
9.126539341E0,2.868254185E-1,5.661219358E-1,5.777854919E-1
9.131539341E0,3.504413366E-1,6.051343083E-1,7.407455444E-1
9.136539341E0,3.626102209E-1,6.003953815E-1,9.161615372E-1
9.141539341E0,3.627072573E-1,5.523189902E-1,1.119228363E0
9.146539341E0,2.710238695E-1,5.075524449E-1,1.301681519E0
9.151539341E0,1.225658655E-1,4.630845189E-1,1.420161247E0
9.156539341E0,-5.382061005E-2,4.492110610E-1,1.485154152E0
9.161539341E0,-2.279167175E-1,4.779344201E-1,1.498513222E0
9.166539341E0,-3.661299944E-1,5.436127782E-1,1.483917236E0
9.171539341E0,-4.448792934E-1,6.289620996E-1,1.475075722E0
9.176539341E0,-4.953801632E-1,6.934338212E-1,1.471108437E0
9.181539341E0,-4.735449553E-1,7.416676879E-1,1.494202614E0
9.186539341E0,-3.642532825E-1,7.174258828E-1,1.569536209E0
9.191539341E0,-2.096910477E-1,6.224402189E-1,1.725082397E0
9.196539341E0,-4.047369957E-2,4.238046408E-1,2.030940056E0
9.201539341E0,1.167029142E-1,1.521270275E-1,2.433827400E0
9.206539341E0,2.242773771E-1,-1.853135824E-1,2.909707069E0
9.211539341E0,2.748167515E-1,-5.351077318E-1,3.463098526E0
9.216539341E0,2.647769451E-1,-9.007729292E-1,4.015156746E0
9.221539341E0,1.156471968E-1,-1.286903381E0,4.558259010E0
9.226539341E0,-1.249673367E-1,-1.669916987E0,5.101682663E0
9.231539341E0,-3.940718174E-1,-1.977618933E0,5.519090652E0
9.236539341E0,-6.752805710E-1,-2.207558870E0,5.765330315E0
9.241539341E0,-9.204418659E-1,-2.366426945E0,5.786065102E0
9.246539341E0,-1.128037810E0,-2.426475286E0,5.510237694E0
9.251539341E0,-1.290985465E0,-2.360687256E0,4.903688431E0
9.256539341E0,-1.377720952E0,-2.163941622E0,4.074812889E0
9.261539341E0,-1.381200433E0,-1.796020031E0,3.180493355E0
9.266539341E0,-1.343408108E0,-1.309862852E0,2.353526115E0
9.271539341E0,-1.188005924E0,-7.785469294E-1,1.519553185E0
9.276539341E0,-9.987595081E-1,-2.853097916E-1,6.348381042E-1
9.281539341E0,-8.186428547E-1,1.668902636E-1,-2.781648636E-1
9.286539341E0,-6.736706495E-1,5.727116466E-1,-1.106282234E0
9.291539341E0,-5.220857859E-1,9.456890821E-1,-1.860669613E0
9.296539341E0,-3.967002630E-1,1.245824814E0,-2.441165924E0
9.301539341E0,-3.081641197E-1,1.453778028E0,-2.828492165E0
9.306539341E0,-2.460014820E-1,1.556802630E0,-3.058083534E0
9.311539341E0,-2.127522230E-1,1.560182095E0,-3.114586830E0
9.316539341E0,-2.335201502E-1,1.479055405E0,-2.983008385E0
9.321539341E0,-2.812167406E-1,1.285916567E0,-2.661128044E0
9.326539341E0,-3.552463055E-1,1.028601885E0,-2.129571915E0
9.331539341E0,-4.196649790E-1,7.042303681E-1,-1.410287857E0
9.336539341E0,-4.061520100E-1,3.480141759E-1,-7.095623016E-1
9.341539341E0,-4.005541801E-1,-2.840042114E-3,-1.093759537E-1
9.346539341E0,-4.248492718E-1,-3.346867859E-1,3.608579636E-1
9.351539341E0,-4.621734619E-1,-6.004108191E-1,7.595500946E-1
9.356539341E0,-4.991190434E-1,-8.022326231E-1,1.169693947E0
9.361539341E0,-4.966980219E-1,-9.467906952E-1,1.493021965E0
9.366539341E0,-4.757640362E-1,-1.014614344E0,1.690834045E0
9.371539341E0,-4.433897734E-1,-1.010141492E0,1.773791313E0
9.376539341E0,-3.632097244E-1,-9.520850182E-1,1.740732193E0
9.381539341E0,-2.600381374E-1,-7.992601991E-1,1.589984894E0
9.386539341E0,-9.936654568E-2,-6.052731276E-1,1.330999374E0
9.391539341E0,3.819000721E-2,-4.142497480E-1,9.251956940E-1
9.396539341E0,1.588859558E-1,-2.130990624E-1,4.703083038E-1
9.401539341E0,2.458790541E-1,1.868116856E-2,2.177333832E-2
9.406539341E0,3.290483952E-1,2.316721082E-1,-3.828458786E-1
9.411539341E0,3.860844374E-1,4.255487323E-1,-7.076139450E-1
9.416539341E0,4.264565706E-1,5.764903426E-1,-9.796113968E-1
9.421539341E0,4.623260498E-1,6.840159297E-1,-1.241103172E0
9.426539341E0,4.469845295E-1,7.602883577E-1,-1.463856697E0
9.431539341E0,4.179295301E-1,8.128418922E-1,-1.706372261E0
9.436539341E0,3.884519339E-1,8.163213134E-1,-1.903101921E0
9.441539341E0,3.644096851E-1,8.141738772E-1,-2.125417233E0
9.446539341E0,3.802880049E-1,8.135667443E-1,-2.273444176E0
9.451539341E0,3.649220467E-1,8.351424336E-1,-2.421438217E0
9.456539341E0,3.715822697E-1,8.569965363E-1,-2.545934677E0
9.461539341E0,3.295377493E-1,8.401218057E-1,-2.647850990E0
9.466539341E0,2.786067724E-1,8.292444944E-1,-2.733081818E0
9.471539341E0,2.407995462E-1,8.292056322E-1,-2.787367821E0
9.476539341E0,1.970866919E-1,7.848876715E-1,-2.792825222E0
9.481539341E0,1.707324982E-1,7.028661370E-1,-2.774275780E0
9.486539341E0,1.491067410E-1,6.159207821E-1,-2.729377747E0
9.491539341E0,1.620838642E-1,5.283663869E-1,-2.633614063E0
9.496539341E0,1.729078293E-1,4.669728279E-1,-2.501923084E0
9.501539341E0,2.040767670E-1,4.239979982E-1,-2.370108604E0
9.506539341E0,2.291647196E-1,4.368033409E-1,-2.229089260E0
9.511539341E0,3.370969296E-1,4.906099439E-1,-2.058351040E0
9.516539341E0,5.021678209E-1,5.424265862E-1,-1.866167068E0
9.521539341E0,6.042358875E-1,5.891391039E-1,-1.609295845E0
9.526539341E0,7.225786448E-1,6.647453308E-1,-1.395797729E0
9.531539341E0,8.468253613E-1,7.373434305E-1,-1.196793556E0
9.536539341E0,9.360382557E-1,7.923890352E-1,-1.049877167E0
9.541539341E0,9.414941072E-1,8.323727250E-1,-9.558315277E-1
9.546539341E0,9.258419275E-1,8.422712684E-1,-8.998603821E-1
9.551539341E0,8.820404410E-1,7.999617457E-1,-8.930349350E-1
9.556539341E0,8.202613592E-1,7.268319726E-1,-8.664150238E-1
9.561539341E0,7.223685980E-1,6.111523509E-1,-8.770408630E-1
9.566539341E0,6.921644211E-1,5.045221448E-1,-8.926248550E-1
9.571539341E0,6.196866035E-1,4.111068249E-1,-9.124870300E-1
9.576539341E0,5.317915678E-1,3.382729292E-1,-9.366931915E-1
9.581539341E0,4.596530199E-1,2.540522814E-1,-9.395818710E-1
9.586539341E0,4.218530655E-1,2.038279176E-1,-9.107227325E-1
9.591539341E0,3.719316721E-1,1.748474836E-1,-8.554048538E-1
9.596539341E0,2.869379520E-1,1.614214778E-1,-7.868814468E-1
9.601539341E0,2.232232094E-1,1.804137826E-1,-7.122497559E-1
9.606539341E0,1.672297716E-1,1.788201332E-1,-6.139574051E-1
9.611539341E0,1.195931435E-1,1.508853436E-1,-5.109596252E-1
9.616539341E0,1.345950365E-1,1.307517886E-1,-4.259471893E-1
9.621539341E0,1.456960440E-1,1.147467494E-1,-3.533077240E-1
9.626539341E0,1.602288485E-1,7.180070877E-2,-2.259702682E-1
9.631539341E0,1.770628691E-1,1.191723347E-2,-9.285736084E-2
9.636539341E0,2.383526564E-1,4.229068756E-3,1.002635956E-1
9.641539341E0,2.995671034E-1,-1.997244358E-2,2.687311172E-1
9.646539341E0,3.858803511E-1,-6.655579805E-2,4.878072739E-1
9.651539341E0,4.564567804E-1,-1.364771724E-1,7.287588120E-1
9.656539341E0,5.251876116E-1,-2.289643288E-1,9.551248550E-1
9.661539341E0,6.043249369E-1,-3.404954076E-1,1.158166885E0
9.666539341E0,6.497924328E-1,-4.592089653E-1,1.327712059E0
9.671539341E0,6.188178062E-1,-6.039730906E-1,1.522411346E0
9.676539341E0,5.227259398E-1,-6.990398169E-1,1.694524765E0
9.681539341E0,3.731230497E-1,-7.235388160E-1,1.798845291E0
9.686539341E0,2.357879877E-1,-6.558391452E-1,1.814888954E0
9.691539341E0,1.534084082E-1,-5.589101315E-1,1.783929825E0
9.696539341E0,1.305353642E-1,-4.573367238E-1,1.728549004E0
9.701539341E0,1.741820574E-1,-3.602361083E-1,1.663524628E0
9.706539341E0,3.005667925E-1,-2.908480167E-1,1.602496147E0
9.711539341E0,4.346238375E-1,-2.545656562E-1,1.567717552E0
9.716539341E0,5.892776251E-1,-3.001573086E-1,1.589926720E0
9.721539341E0,7.831041813E-1,-4.371894002E-1,1.709188461E0
9.726539341E0,9.855194092E-1,-6.876246333E-1,1.958338737E0
9.731539341E0,1.106876850E0,-1.051220775E0,2.337764740E0
9.736539341E0,1.142133236E0,-1.450855255E0,2.790518761E0
9.741539341E0,1.074239850E0,-1.869525433E0,3.306023598E0
9.746539341E0,9.231258631E-1,-2.275755405E0,3.889765739E0
9.751539341E0,7.014705539E-1,-2.660431385E0,4.402793884E0
9.756539341E0,4.672057629E-1,-2.970798731E0,4.844154358E0
9.761539341E0,1.890833378E-1,-3.142516613E0,5.151250839E0
9.766539341E0,-3.249800205E-2,-3.206752300E0,5.262892723E0
9.771539341E0,-1.473246813E-1,-3.144662619E0,5.131181717E0
9.776539341E0,-1.355240345E-1,-3.012549639E0,4.715624809E0
9.781539341E0,-1.644837856E-2,-2.778562307E0,4.127307892E0
9.786539341E0,2.114460468E-1,-2.410455227E0,3.399915695E0
9.791539341E0,4.997775555E-1,-1.949674129E0,2.624090195E0
9.796539341E0,7.708770633E-1,-1.441040993E0,1.902549744E0
9.801539341E0,1.052719831E0,-9.522796869E-1,1.300312042E0
9.806539341E0,1.332895756E0,-5.524308085E-1,7.721490860E-1
9.811539341E0,1.587154746E0,-2.607341707E-1,3.166275024E-1
9.816539341E0,1.830976725E0,-7.845151424E-2,-9.544754028E-2
9.821539341E0,2.043097258E0,4.058715701E-2,-3.909645081E-1
9.826539341E0,2.277397633E0,1.110560298E-1,-5.178117752E-1
9.831539341E0,2.533581495E0,1.498609781E-1,-4.936323166E-1
9.836539341E0,2.786406517E0,1.749872863E-1,-3.353424072E-1
9.841539341E0,3.001801968E0,2.019697726E-1,-8.272266388E-2
9.846539341E0,3.191453695E0,1.905762851E-1,1.949539185E-1
9.851539341E0,3.332069635E0,1.435550451E-1,4.628095627E-1
9.856539341E0,3.396359205E0,2.809607983E-2,7.466611862E-1
9.861539341E0,3.357589006E0,-1.418674886E-1,1.044984818E0
9.866539341E0,3.269584656E0,-3.781673312E-1,1.262135506E0
9.871539341E0,3.156953573E0,-6.777731180E-1,1.395591736E0
9.876539341E0,2.828508854E0,-9.577566385E-1,1.429595947E0
9.881539341E0,2.504162788E0,-1.201808691E0,1.365200996E0
9.886539341E0,2.212987423E0,-1.363246679E0,1.180315971E0
9.891539341E0,1.915453434E0,-1.489742041E0,8.649778366E-1
9.896539341E0,1.679558039E0,-1.563871861E0,5.062503815E-1
9.901539341E0,1.497952342E0,-1.567835450E0,8.536052704E-2
9.906539341E0,1.373300433E0,-1.485040426E0,-3.558502197E-1
9.911539341E0,1.307838559E0,-1.331936836E0,-7.688398361E-1
9.916539341E0,1.268098712E0,-1.155086756E0,-1.173851013E0
9.921539341E0,1.245775223E0,-9.497055411E-1,-1.555571556E0
9.926539341E0,1.230400801E0,-7.613058686E-1,-1.945043087E0
9.931539341E0,1.230597496E0,-6.104145646E-1,-2.361467361E0
9.936539341E0,1.232210875E0,-4.637768567E-1,-2.777743340E0
9.941539341E0,1.225762248E0,-3.095369041E-1,-3.109017849E0
9.946539341E0,1.218964577E0,-1.252281368E-1,-3.358654976E0
9.951539341E0,1.229036570E0,4.605215788E-2,-3.540866852E0
9.956539341E0,1.194636106E0,1.745609045E-1,-3.675346375E0
9.961539341E0,1.147756100E0,2.824538350E-1,-3.706221581E0
9.966539341E0,1.095089197E0,3.377640843E-1,-3.690409184E0
9.971539341E0,9.885023832E-1,3.380655646E-1,-3.629187584E0
9.976539341E0,9.049048424E-1,2.752096057E-1,-3.524029732E0
9.981539341E0,8.237338066E-1,2.313523889E-1,-3.394542694E0
9.986539341E0,7.500013113E-1,2.040210366E-1,-3.246561050E0
9.991539341E0,7.128030062E-1,2.047407627E-1,-3.116891861E0
9.996539341E0,6.751886606E-1,1.998161077E-1,-2.994512081E0
1.000153934E1,6.399072409E-1,2.103541493E-1,-2.866673470E0
1.000653934E1,6.377491951E-1,2.470459342E-1,-2.757031441E0
1.001153934E1,6.794326305E-1,3.074473739E-1,-2.623855591E0
1.001653934E1,6.640790701E-1,3.558037877E-1,-2.490917683E0
1.002153934E1,5.995727181E-1,4.100542068E-1,-2.323386192E0
1.002653934E1,5.562731028E-1,4.449678659E-1,-2.184096336E0
1.003153934E1,5.242196321E-1,4.768177867E-1,-2.049919128E0
1.003653934E1,4.559255838E-1,4.698756933E-1,-1.983114719E0
1.004153934E1,3.438324928E-1,4.245980978E-1,-1.928947449E0
1.004653934E1,2.167209387E-1,3.821424842E-1,-1.879984856E0
1.005153934E1,6.179893017E-2,3.535223603E-1,-1.816209793E0
1.005653934E1,-6.420660019E-2,3.227911592E-1,-1.735980034E0
